[{"success":true,"trial_type":"fullscreen","trial_index":0,"time_elapsed":1080,"internal_node_id":"0.0-0.0","screen_height":919,"screen_width":1920,"browser":"firefox","browser_version":"116.0.0","mobile":false,"os":"Windows 10","vsync_rate":143.88,"participant_id":"auz_test"},{"width":1920,"height":919,"webaudio":true,"browser":"firefox","browser_version":"116.0.0","mobile":false,"os":"Windows 10","fullscreen":true,"vsync_rate":143.88,"webcam":false,"microphone":true,"screen":"browser_info","trial_type":"browser-check","trial_index":1,"time_elapsed":1503,"internal_node_id":"0.0-1.0","screen_height":919,"screen_width":1920,"participant_id":"auz_test"},{"rt":7625,"response":{"Participant_ID":"auz_test"},"screen":"participant_info","version":"1.0","date":"07/08/2023","time":"12:46:46","trial_type":"survey-text","trial_index":2,"time_elapsed":9130,"internal_node_id":"0.0-2.0","screen_height":919,"screen_width":1920,"browser":"firefox","browser_version":"116.0.0","mobile":false,"os":"Windows 10","vsync_rate":143.88,"participant_id":"auz_test"},{"rt":18145,"response":{"age":"22","gender":"nonbinary","ethnicity":"White"},"screen":"demographics","trial_type":"survey-text","trial_index":3,"time_elapsed":27277,"internal_node_id":"0.0-3.0","screen_height":919,"screen_width":1920,"browser":"firefox","browser_version":"116.0.0","mobile":false,"os":"Windows 10","vsync_rate":143.88,"participant_id":"auz_test"},{"success":true,"timeout":false,"failed_images":[],"failed_audio":[],"failed_video":[],"trial_type":"preload","trial_index":4,"time_elapsed":27314,"internal_node_id":"0.0-4.0","screen_height":919,"screen_width":1920,"browser":"firefox","browser_version":"116.0.0","mobile":false,"os":"Windows 10","vsync_rate":143.88,"participant_id":"auz_test"},{"rt":903,"stimulus":"<p><b>Instructions</b></p><p>A rest period of approximately 10 minutes is about to start.</p><p>Simply <b>relax</b> and remain seated quietly with your eyes closed. Please try <b>not to fall asleep</b>.</p> <p>Once the resting period is over, you will hear a beep. You can then open your eyes and proceed.</p><p>Once you are ready, close your eyes. The rest period will shortly begin.</p>","response":0,"trial_type":"html-button-response","trial_index":5,"time_elapsed":28219,"internal_node_id":"0.0-5.0","screen_height":919,"screen_width":1920,"browser":"firefox","browser_version":"116.0.0","mobile":false,"os":"Windows 10","vsync_rate":143.88,"participant_id":"auz_test"},{"rt":null,"stimulus":"","response":null,"trial_type":"html-keyboard-response","trial_index":6,"time_elapsed":29227,"internal_node_id":"0.0-6.0","screen_height":919,"screen_width":1920,"browser":"firefox","browser_version":"116.0.0","mobile":false,"os":"Windows 10","vsync_rate":143.88,"participant_id":"auz_test"},{"rt":303,"stimulus":"<p style='font-size:150px;'>+</p>","response":"s","screen":"resting","time_start":29385,"trial_type":"html-keyboard-response","trial_index":7,"time_elapsed":29531,"internal_node_id":"0.0-7.0","screen_height":919,"screen_width":1920,"browser":"firefox","browser_version":"116.0.0","mobile":false,"os":"Windows 10","vsync_rate":143.88,"participant_id":"auz_test","duration":0.00505},{"rt":821,"stimulus":["utils/beep.mp3"],"response":0,"trial_type":"audio-button-response","trial_index":8,"time_elapsed":30353,"internal_node_id":"0.0-8.0","screen_height":919,"screen_width":1920,"browser":"firefox","browser_version":"116.0.0","mobile":false,"os":"Windows 10","vsync_rate":143.88,"participant_id":"auz_test"},{"rt":18609,"response":"{\"DoM_1\":0.77,\"DoM_2\":0.75,\"DoM_3\":0.76,\"ToM_1\":0.18,\"ToM_2\":0.62,\"ToM_3\":0.68,\"Self_1\":0.35,\"Self_2\":0.65,\"Self_3\":0.4,\"Plan_1\":0.76,\"Plan_2\":0.72,\"Plan_3\":0.65,\"Sleep_1\":0.71,\"Sleep_2\":0.72,\"Sleep_3\":0.73,\"Comfort_1\":0.74,\"Comfort_2\":0.68,\"Comfort_3\":0.65,\"SomA_1\":0.68,\"SomA_2\":0.7,\"SomA_3\":0.18}","question_order":"[0,1,2,3,4,5,6,7,8,9,10,11,12,13,14,15,16,17,18,19,20]","screen":"rs_questionnaire","trial_type":"multiple-slider","trial_index":9,"time_elapsed":48963,"internal_node_id":"0.0-9.0","screen_height":919,"screen_width":1920,"browser":"firefox","browser_version":"116.0.0","mobile":false,"os":"Windows 10","vsync_rate":143.88,"participant_id":"auz_test"},{"rt":22410,"response":"{\"Extraversion_1\":0.73,\"Agreeableness_2\":0.65,\"Conscientiousness_3\":0.75,\"Neuroticism_4\":0.71,\"Openness_5\":0.66,\"HonestyHumility_6_R\":0.67,\"Extraversion_7_R\":0.4,\"Agreeableness_8_R\":0.38,\"Openness_9_R\":0.72,\"Conscientiousness_10\":0.72,\"Conscientiousness_11_R\":0.37,\"HonestyHumility_12_R\":0.69,\"Openness_13_R\":0.38,\"Agreeableness_14\":0.58,\"Neuroticism_15_R\":0.35,\"Neuroticism_16\":0.32,\"Neuroticism_17_R\":0.4,\"HonestyHumility_18_R\":0.74,\"Extraversion_19_R\":0.73,\"Agreeableness_20_R\":0.75,\"Openness_21_R\":0.61,\"Conscientiousness_22_R\":0.68,\"Extraversion_23\":0.66,\"HonestyHumility_24_R\":0.64}","question_order":"[0,1,2,3,4,5,6,7,8,9,10,11,12,13,14,15,16,17,18,19,20,21,22,23]","screen":"IPIP6","trial_type":"multiple-slider","trial_index":10,"time_elapsed":71375,"internal_node_id":"0.0-10.0","screen_height":919,"screen_width":1920,"browser":"firefox","browser_version":"116.0.0","mobile":false,"os":"Windows 10","vsync_rate":143.88,"participant_id":"auz_test"},{"rt":23602,"response":{"Disinhibition_1":2,"Disinhibition_2":2,"Disinhibition_3":2,"Detachment_4":2,"Disinhibition_5":2,"Disinhibition_6":1,"Psychoticism_7":1,"NegativeAffect_8":2,"NegativeAffect_9":1,"NegativeAffect_10":1,"NegativeAffect_11":2,"Psychoticism_12":2,"Detachment_13":2,"Detachment_14":1,"NegativeAffect_15":3,"Detachment_16":3,"Antagonism_17":3,"Detachment_18":3,"Antagonism_19":3,"Antagonism_20":2,"Psychoticism_21":2,"Antagonism_22":1,"Psychoticism_23":1,"Psychoticism_24":1,"Antagonism_25":1},"question_order":[0,1,2,3,4,5,6,7,8,9,10,11,12,13,14,15,16,17,18,19,20,21,22,23,24],"screen":"PID5","trial_type":"survey-likert","trial_index":11,"time_elapsed":94979,"internal_node_id":"0.0-11.0","screen_height":919,"screen_width":1920,"browser":"firefox","browser_version":"116.0.0","mobile":false,"os":"Windows 10","vsync_rate":143.88,"participant_id":"auz_test"},{"success":true,"timeout":false,"failed_images":[],"failed_audio":[],"failed_video":[],"trial_type":"preload","trial_index":12,"time_elapsed":94990,"internal_node_id":"0.0-12.0","screen_height":919,"screen_width":1920,"browser":"firefox","browser_version":"116.0.0","mobile":false,"os":"Windows 10","vsync_rate":143.88,"participant_id":"auz_test"},{"rt":1505,"stimulus":"<p><b>Illusion Game</b></p><p>In this game of speed and reflex, you will need to make <b>visual judgments</b> (for instance, which circle is the biggest, or which line is the longest), as fast and as correctly as possible, while <b>resisting different visual illusions</b>.</p><p>We are going to start with some examples of all the illusions you will encounter in the game.</p>","response":0,"screen":"IG_instructions","trial_type":"html-button-response","trial_index":13,"time_elapsed":96498,"internal_node_id":"0.0-13.0-0.0","screen_height":919,"screen_width":1920,"browser":"firefox","browser_version":"116.0.0","mobile":false,"os":"Windows 10","vsync_rate":143.88,"participant_id":"auz_test"},{"success":true,"timeout":false,"failed_images":[],"failed_audio":[],"failed_video":[],"trial_type":"preload","trial_index":14,"time_elapsed":96519,"internal_node_id":"0.0-13.0-1.0-0.0","screen_height":919,"screen_width":1920,"browser":"firefox","browser_version":"116.0.0","mobile":false,"os":"Windows 10","vsync_rate":143.88,"participant_id":"auz_test"},{"rt":1120,"stimulus":"<p><b>Practice</b></p><p>In this part, two red circles will appear side by side on the screen.</p><p>Your task is to select which <b>red circle is bigger</b> in size as fast as you can, without making errors.</p><p>Don't get distracted by the surrounding black circles around the red circles!</p><p>Press <b>the LEFT or the RIGHT arrow</b> to indicate which is the bigger <b>red circle.</b></p><div style='float: center'><img src='materials/instructions/Ebbinghaus_Demo.png' height='300'></img><p><img src='utils/answer/answer_leftright_keyboard.PNG' height='150'></img></p><p class='small'>In this example, the correct answer is the <b>LEFT arrow</b>.</p></div><p>Are you ready? <b>Press ENTER to start</b></p>","response":"enter","trial_type":"html-keyboard-response","trial_index":15,"time_elapsed":97641,"internal_node_id":"0.0-13.0-1.0-1.0","screen_height":919,"screen_width":1920,"browser":"firefox","browser_version":"116.0.0","mobile":false,"os":"Windows 10","vsync_rate":143.88,"participant_id":"auz_test"},{"rt":null,"stimulus":"<p style=\"color: black; font-size: 80px; padding-left: 40%; padding-right: 11%; padding-top: 3%; padding-bottom: 25%\">+</p>","response":null,"screen":"fixation","trial_type":"html-keyboard-response","trial_index":16,"time_elapsed":98153,"internal_node_id":"0.0-13.0-1.0-2.0-0.0","screen_height":919,"screen_width":1920,"browser":"firefox","browser_version":"116.0.0","mobile":false,"os":"Windows 10","vsync_rate":143.88,"participant_id":"auz_test","trial_duration":0},{"rt":487,"stimulus":"stimuli/Ebbinghaus_0.15000_-1.4000.png","response":"arrowright","screen":"Trial","block":"Ebbinghaus","correct_response":"arrowright","trial_type":"image-keyboard-response","trial_index":17,"time_elapsed":98649,"internal_node_id":"0.0-13.0-1.0-2.0-1.0","screen_height":919,"screen_width":1920,"browser":"firefox","browser_version":"116.0.0","mobile":false,"os":"Windows 10","vsync_rate":143.88,"participant_id":"auz_test","prestimulus_duration":512,"correct":true,"type":"Ebbinghaus","block_number":1,"trial_number":1},{"rt":null,"stimulus":"<p style=\"color: black; font-size: 80px; padding-left: 27%; padding-right: 12%; padding-top: 10%; padding-bottom: 15%\">+</p>","response":null,"screen":"fixation","trial_type":"html-keyboard-response","trial_index":18,"time_elapsed":98650,"internal_node_id":"0.0-13.0-1.0-2.0-0.1","screen_height":919,"screen_width":1920,"browser":"firefox","browser_version":"116.0.0","mobile":false,"os":"Windows 10","vsync_rate":143.88,"participant_id":"auz_test","trial_duration":0},{"rt":54,"stimulus":"stimuli/Ebbinghaus_0.15000_1.40000.png","response":"arrowleft","screen":"Trial","block":"Ebbinghaus","correct_response":"arrowleft","trial_type":"image-keyboard-response","trial_index":19,"time_elapsed":98713,"internal_node_id":"0.0-13.0-1.0-2.0-1.1","screen_height":919,"screen_width":1920,"browser":"firefox","browser_version":"116.0.0","mobile":false,"os":"Windows 10","vsync_rate":143.88,"participant_id":"auz_test","prestimulus_duration":1,"correct":true,"type":"Ebbinghaus","block_number":1,"trial_number":2},{"rt":null,"stimulus":"<p style=\"color: black; font-size: 80px; padding-left: 32%; padding-right: 39%; padding-top: 49%; padding-bottom: 40%\">+</p>","response":null,"screen":"fixation","trial_type":"html-keyboard-response","trial_index":20,"time_elapsed":98714,"internal_node_id":"0.0-13.0-1.0-2.0-0.2","screen_height":919,"screen_width":1920,"browser":"firefox","browser_version":"116.0.0","mobile":false,"os":"Windows 10","vsync_rate":143.88,"participant_id":"auz_test","trial_duration":0},{"rt":101,"stimulus":"stimuli/Ebbinghaus_-1.0000_1.40000.png","response":"arrowright","screen":"Trial","block":"Ebbinghaus","correct_response":"arrowleft","trial_type":"image-keyboard-response","trial_index":21,"time_elapsed":98824,"internal_node_id":"0.0-13.0-1.0-2.0-1.2","screen_height":919,"screen_width":1920,"browser":"firefox","browser_version":"116.0.0","mobile":false,"os":"Windows 10","vsync_rate":143.88,"participant_id":"auz_test","prestimulus_duration":1,"correct":false,"type":"Ebbinghaus","block_number":1,"trial_number":3},{"rt":null,"stimulus":"<p style=\"color: black; font-size: 80px; padding-left: 21%; padding-right: 30%; padding-top: 31%; padding-bottom: 27%\">+</p>","response":null,"screen":"fixation","trial_type":"html-keyboard-response","trial_index":22,"time_elapsed":98826,"internal_node_id":"0.0-13.0-1.0-2.0-0.3","screen_height":919,"screen_width":1920,"browser":"firefox","browser_version":"116.0.0","mobile":false,"os":"Windows 10","vsync_rate":143.88,"participant_id":"auz_test","trial_duration":0},{"rt":135,"stimulus":"stimuli/Ebbinghaus_-1.0000_-1.4000.png","response":"arrowleft","screen":"Trial","block":"Ebbinghaus","correct_response":"arrowright","trial_type":"image-keyboard-response","trial_index":23,"time_elapsed":98968,"internal_node_id":"0.0-13.0-1.0-2.0-1.3","screen_height":919,"screen_width":1920,"browser":"firefox","browser_version":"116.0.0","mobile":false,"os":"Windows 10","vsync_rate":143.88,"participant_id":"auz_test","prestimulus_duration":2,"correct":false,"type":"Ebbinghaus","block_number":1,"trial_number":4},{"rt":null,"stimulus":"<p style=\"color: black; font-size: 80px; padding-left: 50%; padding-right: 30%; padding-top: 22%; padding-bottom: 43%\">+</p>","response":null,"screen":"fixation","trial_type":"html-keyboard-response","trial_index":24,"time_elapsed":98969,"internal_node_id":"0.0-13.0-1.0-2.0-0.4","screen_height":919,"screen_width":1920,"browser":"firefox","browser_version":"116.0.0","mobile":false,"os":"Windows 10","vsync_rate":143.88,"participant_id":"auz_test","trial_duration":0},{"rt":117,"stimulus":"stimuli/Ebbinghaus_1.00000_1.40000.png","response":"arrowleft","screen":"Trial","block":"Ebbinghaus","correct_response":"arrowleft","trial_type":"image-keyboard-response","trial_index":25,"time_elapsed":99097,"internal_node_id":"0.0-13.0-1.0-2.0-1.4","screen_height":919,"screen_width":1920,"browser":"firefox","browser_version":"116.0.0","mobile":false,"os":"Windows 10","vsync_rate":143.88,"participant_id":"auz_test","prestimulus_duration":1,"correct":true,"type":"Ebbinghaus","block_number":1,"trial_number":5},{"rt":null,"stimulus":"<p style=\"color: black; font-size: 80px; padding-left: 19%; padding-right: 21%; padding-top: 38%; padding-bottom: 18%\">+</p>","response":null,"screen":"fixation","trial_type":"html-keyboard-response","trial_index":26,"time_elapsed":99098,"internal_node_id":"0.0-13.0-1.0-2.0-0.5","screen_height":919,"screen_width":1920,"browser":"firefox","browser_version":"116.0.0","mobile":false,"os":"Windows 10","vsync_rate":143.88,"participant_id":"auz_test","trial_duration":0},{"rt":94,"stimulus":"stimuli/Ebbinghaus_1.00000_-1.4000.png","response":"arrowleft","screen":"Trial","block":"Ebbinghaus","correct_response":"arrowright","trial_type":"image-keyboard-response","trial_index":27,"time_elapsed":99200,"internal_node_id":"0.0-13.0-1.0-2.0-1.5","screen_height":919,"screen_width":1920,"browser":"firefox","browser_version":"116.0.0","mobile":false,"os":"Windows 10","vsync_rate":143.88,"participant_id":"auz_test","prestimulus_duration":1,"correct":false,"type":"Ebbinghaus","block_number":1,"trial_number":6},{"rt":null,"stimulus":"<p style=\"color: black; font-size: 80px; padding-left: 46%; padding-right: 42%; padding-top: 41%; padding-bottom: 2%\">+</p>","response":null,"screen":"fixation","trial_type":"html-keyboard-response","trial_index":28,"time_elapsed":99202,"internal_node_id":"0.0-13.0-1.0-2.0-0.6","screen_height":919,"screen_width":1920,"browser":"firefox","browser_version":"116.0.0","mobile":false,"os":"Windows 10","vsync_rate":143.88,"participant_id":"auz_test","trial_duration":0},{"rt":159,"stimulus":"stimuli/Ebbinghaus_-0.1500_-1.4000.png","response":"arrowright","screen":"Trial","block":"Ebbinghaus","correct_response":"arrowright","trial_type":"image-keyboard-response","trial_index":29,"time_elapsed":99368,"internal_node_id":"0.0-13.0-1.0-2.0-1.6","screen_height":919,"screen_width":1920,"browser":"firefox","browser_version":"116.0.0","mobile":false,"os":"Windows 10","vsync_rate":143.88,"participant_id":"auz_test","prestimulus_duration":2,"correct":true,"type":"Ebbinghaus","block_number":1,"trial_number":7},{"rt":null,"stimulus":"<p style=\"color: black; font-size: 80px; padding-left: 27%; padding-right: 39%; padding-top: 22%; padding-bottom: 31%\">+</p>","response":null,"screen":"fixation","trial_type":"html-keyboard-response","trial_index":30,"time_elapsed":99370,"internal_node_id":"0.0-13.0-1.0-2.0-0.7","screen_height":919,"screen_width":1920,"browser":"firefox","browser_version":"116.0.0","mobile":false,"os":"Windows 10","vsync_rate":143.88,"participant_id":"auz_test","trial_duration":0},{"rt":85,"stimulus":"stimuli/Ebbinghaus_-0.1500_1.40000.png","response":"arrowleft","screen":"Trial","block":"Ebbinghaus","correct_response":"arrowleft","trial_type":"image-keyboard-response","trial_index":31,"time_elapsed":99465,"internal_node_id":"0.0-13.0-1.0-2.0-1.7","screen_height":919,"screen_width":1920,"browser":"firefox","browser_version":"116.0.0","mobile":false,"os":"Windows 10","vsync_rate":143.88,"participant_id":"auz_test","prestimulus_duration":2,"correct":true,"type":"Ebbinghaus","block_number":1,"trial_number":8},{"rt":1396,"stimulus":"<p style='color:rgb(76,175,80);'> Correct Responses: <b>62.50%</b></p><hr><p style='color:rgb(139, 195, 74);'> Average Response Time: <b>154.00</b> ms.</p>","response":0,"screen":"practice_block_results","trial_type":"html-button-response","trial_index":32,"time_elapsed":100861,"internal_node_id":"0.0-13.0-1.0-3.0","screen_height":919,"screen_width":1920,"browser":"firefox","browser_version":"116.0.0","mobile":false,"os":"Windows 10","vsync_rate":143.88,"participant_id":"auz_test"},{"success":true,"timeout":false,"failed_images":[],"failed_audio":[],"failed_video":[],"trial_type":"preload","trial_index":33,"time_elapsed":101391,"internal_node_id":"0.0-13.0-2.0-0.0","screen_height":919,"screen_width":1920,"browser":"firefox","browser_version":"116.0.0","mobile":false,"os":"Windows 10","vsync_rate":143.88,"participant_id":"auz_test"},{"rt":1184,"stimulus":"<p><b>Practice</b></p><p>In this part, two horizontal red lines will appear one above the other.</p><p>Your task is to select which <b>line is longer</b> in length as fast as you can, without making errors.</p><p>Don't get distracted by the surrounding black arrows at the end of the red lines!</p><p>Press <b>the UP or the DOWN arrow</b> to indicate where is the longer <b>red line.</b></p><div style='float: center'><img src='materials/instructions/MullerLyer_Demo.png' height='300'></img><p><img src='utils/answer/answer_updown_keyboard.PNG' height='150'></img></p><p class='small'>In this example, the correct answer is the <b>UP arrow</b>.</p></div><p>Are you ready? <b>Press ENTER to start</b></p>","response":"enter","trial_type":"html-keyboard-response","trial_index":34,"time_elapsed":102577,"internal_node_id":"0.0-13.0-2.0-1.0","screen_height":919,"screen_width":1920,"browser":"firefox","browser_version":"116.0.0","mobile":false,"os":"Windows 10","vsync_rate":143.88,"participant_id":"auz_test"},{"rt":null,"stimulus":"<p style=\"color: black; font-size: 80px; padding-left: 12%; padding-right: 1%; padding-top: 13%; padding-bottom: 22%\">+</p>","response":null,"screen":"fixation","trial_type":"html-keyboard-response","trial_index":35,"time_elapsed":103084,"internal_node_id":"0.0-13.0-2.0-2.0-0.0","screen_height":919,"screen_width":1920,"browser":"firefox","browser_version":"116.0.0","mobile":false,"os":"Windows 10","vsync_rate":143.88,"participant_id":"auz_test","trial_duration":0},{"rt":21,"stimulus":"stimuli/MullerLyer_23.0000_-0.7000.png","response":"arrowdown","screen":"Trial","block":"MullerLyer","correct_response":"arrowdown","trial_type":"image-keyboard-response","trial_index":36,"time_elapsed":103112,"internal_node_id":"0.0-13.0-2.0-2.0-1.0","screen_height":919,"screen_width":1920,"browser":"firefox","browser_version":"116.0.0","mobile":false,"os":"Windows 10","vsync_rate":143.88,"participant_id":"auz_test","prestimulus_duration":507,"correct":true,"type":"MullerLyer","block_number":1,"trial_number":9},{"rt":null,"stimulus":"<p style=\"color: black; font-size: 80px; padding-left: 9%; padding-right: 22%; padding-top: 25%; padding-bottom: 48%\">+</p>","response":null,"screen":"fixation","trial_type":"html-keyboard-response","trial_index":37,"time_elapsed":103114,"internal_node_id":"0.0-13.0-2.0-2.0-0.1","screen_height":919,"screen_width":1920,"browser":"firefox","browser_version":"116.0.0","mobile":false,"os":"Windows 10","vsync_rate":143.88,"participant_id":"auz_test","trial_duration":0},{"rt":159,"stimulus":"stimuli/MullerLyer_-3.0000_-0.7000.png","response":"arrowup","screen":"Trial","block":"MullerLyer","correct_response":"arrowdown","trial_type":"image-keyboard-response","trial_index":38,"time_elapsed":103281,"internal_node_id":"0.0-13.0-2.0-2.0-1.1","screen_height":919,"screen_width":1920,"browser":"firefox","browser_version":"116.0.0","mobile":false,"os":"Windows 10","vsync_rate":143.88,"participant_id":"auz_test","prestimulus_duration":2,"correct":false,"type":"MullerLyer","block_number":1,"trial_number":10},{"rt":null,"stimulus":"<p style=\"color: black; font-size: 80px; padding-left: 47%; padding-right: 47%; padding-top: 20%; padding-bottom: 46%\">+</p>","response":null,"screen":"fixation","trial_type":"html-keyboard-response","trial_index":39,"time_elapsed":103282,"internal_node_id":"0.0-13.0-2.0-2.0-0.2","screen_height":919,"screen_width":1920,"browser":"firefox","browser_version":"116.0.0","mobile":false,"os":"Windows 10","vsync_rate":143.88,"participant_id":"auz_test","trial_duration":0},{"rt":77,"stimulus":"stimuli/MullerLyer_-23.000_0.70000.png","response":"arrowdown","screen":"Trial","block":"MullerLyer","correct_response":"arrowup","trial_type":"image-keyboard-response","trial_index":40,"time_elapsed":103369,"internal_node_id":"0.0-13.0-2.0-2.0-1.2","screen_height":919,"screen_width":1920,"browser":"firefox","browser_version":"116.0.0","mobile":false,"os":"Windows 10","vsync_rate":143.88,"participant_id":"auz_test","prestimulus_duration":1,"correct":false,"type":"MullerLyer","block_number":1,"trial_number":11},{"rt":null,"stimulus":"<p style=\"color: black; font-size: 80px; padding-left: 1%; padding-right: 39%; padding-top: 17%; padding-bottom: 31%\">+</p>","response":null,"screen":"fixation","trial_type":"html-keyboard-response","trial_index":41,"time_elapsed":103370,"internal_node_id":"0.0-13.0-2.0-2.0-0.3","screen_height":919,"screen_width":1920,"browser":"firefox","browser_version":"116.0.0","mobile":false,"os":"Windows 10","vsync_rate":143.88,"participant_id":"auz_test","trial_duration":0},{"rt":71,"stimulus":"stimuli/MullerLyer_3.00000_-0.7000.png","response":"arrowup","screen":"Trial","block":"MullerLyer","correct_response":"arrowdown","trial_type":"image-keyboard-response","trial_index":42,"time_elapsed":103449,"internal_node_id":"0.0-13.0-2.0-2.0-1.3","screen_height":919,"screen_width":1920,"browser":"firefox","browser_version":"116.0.0","mobile":false,"os":"Windows 10","vsync_rate":143.88,"participant_id":"auz_test","prestimulus_duration":1,"correct":false,"type":"MullerLyer","block_number":1,"trial_number":12},{"rt":null,"stimulus":"<p style=\"color: black; font-size: 80px; padding-left: 34%; padding-right: 22%; padding-top: 39%; padding-bottom: 20%\">+</p>","response":null,"screen":"fixation","trial_type":"html-keyboard-response","trial_index":43,"time_elapsed":103450,"internal_node_id":"0.0-13.0-2.0-2.0-0.4","screen_height":919,"screen_width":1920,"browser":"firefox","browser_version":"116.0.0","mobile":false,"os":"Windows 10","vsync_rate":143.88,"participant_id":"auz_test","trial_duration":0},{"rt":126,"stimulus":"stimuli/MullerLyer_3.00000_0.70000.png","response":"arrowdown","screen":"Trial","block":"MullerLyer","correct_response":"arrowup","trial_type":"image-keyboard-response","trial_index":44,"time_elapsed":103585,"internal_node_id":"0.0-13.0-2.0-2.0-1.4","screen_height":919,"screen_width":1920,"browser":"firefox","browser_version":"116.0.0","mobile":false,"os":"Windows 10","vsync_rate":143.88,"participant_id":"auz_test","prestimulus_duration":1,"correct":false,"type":"MullerLyer","block_number":1,"trial_number":13},{"rt":null,"stimulus":"<p style=\"color: black; font-size: 80px; padding-left: 34%; padding-right: 47%; padding-top: 47%; padding-bottom: 6%\">+</p>","response":null,"screen":"fixation","trial_type":"html-keyboard-response","trial_index":45,"time_elapsed":103586,"internal_node_id":"0.0-13.0-2.0-2.0-0.5","screen_height":919,"screen_width":1920,"browser":"firefox","browser_version":"116.0.0","mobile":false,"os":"Windows 10","vsync_rate":143.88,"participant_id":"auz_test","trial_duration":0},{"rt":86,"stimulus":"stimuli/MullerLyer_23.0000_0.70000.png","response":"arrowup","screen":"Trial","block":"MullerLyer","correct_response":"arrowup","trial_type":"image-keyboard-response","trial_index":46,"time_elapsed":103681,"internal_node_id":"0.0-13.0-2.0-2.0-1.5","screen_height":919,"screen_width":1920,"browser":"firefox","browser_version":"116.0.0","mobile":false,"os":"Windows 10","vsync_rate":143.88,"participant_id":"auz_test","prestimulus_duration":1,"correct":true,"type":"MullerLyer","block_number":1,"trial_number":14},{"rt":null,"stimulus":"<p style=\"color: black; font-size: 80px; padding-left: 13%; padding-right: 39%; padding-top: 40%; padding-bottom: 25%\">+</p>","response":null,"screen":"fixation","trial_type":"html-keyboard-response","trial_index":47,"time_elapsed":103682,"internal_node_id":"0.0-13.0-2.0-2.0-0.6","screen_height":919,"screen_width":1920,"browser":"firefox","browser_version":"116.0.0","mobile":false,"os":"Windows 10","vsync_rate":143.88,"participant_id":"auz_test","trial_duration":0},{"rt":78,"stimulus":"stimuli/MullerLyer_-3.0000_0.70000.png","response":"arrowdown","screen":"Trial","block":"MullerLyer","correct_response":"arrowup","trial_type":"image-keyboard-response","trial_index":48,"time_elapsed":103769,"internal_node_id":"0.0-13.0-2.0-2.0-1.6","screen_height":919,"screen_width":1920,"browser":"firefox","browser_version":"116.0.0","mobile":false,"os":"Windows 10","vsync_rate":143.88,"participant_id":"auz_test","prestimulus_duration":1,"correct":false,"type":"MullerLyer","block_number":1,"trial_number":15},{"rt":null,"stimulus":"<p style=\"color: black; font-size: 80px; padding-left: 48%; padding-right: 48%; padding-top: 49%; padding-bottom: 5%\">+</p>","response":null,"screen":"fixation","trial_type":"html-keyboard-response","trial_index":49,"time_elapsed":103769,"internal_node_id":"0.0-13.0-2.0-2.0-0.7","screen_height":919,"screen_width":1920,"browser":"firefox","browser_version":"116.0.0","mobile":false,"os":"Windows 10","vsync_rate":143.88,"participant_id":"auz_test","trial_duration":0},{"rt":119,"stimulus":"stimuli/MullerLyer_-23.000_-0.7000.png","response":"arrowup","screen":"Trial","block":"MullerLyer","correct_response":"arrowdown","trial_type":"image-keyboard-response","trial_index":50,"time_elapsed":103897,"internal_node_id":"0.0-13.0-2.0-2.0-1.7","screen_height":919,"screen_width":1920,"browser":"firefox","browser_version":"116.0.0","mobile":false,"os":"Windows 10","vsync_rate":143.88,"participant_id":"auz_test","prestimulus_duration":0,"correct":false,"type":"MullerLyer","block_number":1,"trial_number":16},{"rt":865,"stimulus":"<p style='color:rgb(76,175,80);'> Correct Responses: <b>25.00%</b></p><hr><p style='color:rgb(139, 195, 74);'> Average Response Time: <b>92.13</b> ms.</p>","response":0,"screen":"practice_block_results","trial_type":"html-button-response","trial_index":51,"time_elapsed":104763,"internal_node_id":"0.0-13.0-2.0-3.0","screen_height":919,"screen_width":1920,"browser":"firefox","browser_version":"116.0.0","mobile":false,"os":"Windows 10","vsync_rate":143.88,"participant_id":"auz_test"},{"success":true,"timeout":false,"failed_images":[],"failed_audio":[],"failed_video":[],"trial_type":"preload","trial_index":52,"time_elapsed":105288,"internal_node_id":"0.0-13.0-3.0-0.0","screen_height":919,"screen_width":1920,"browser":"firefox","browser_version":"116.0.0","mobile":false,"os":"Windows 10","vsync_rate":143.88,"participant_id":"auz_test"},{"rt":1176,"stimulus":"<p><b>Practice</b></p><p>In this part, two red lines will appear side by side.</p><p>Your task is to tell <b>which line is longer</b> in length, regardless of their orientation, as fast as you can, and without making errors.</p><p>Don't get distracted by the orientation of the lines!</p><p>Press <b>the LEFT or the RIGHT arrow</b> to indicate which <b>line is the longer one.</b></p><div style='float: center'><img src='materials/instructions/VerticalHorizontal_Demo.png' height='300'></img><p><img src='utils/answer/answer_leftright_keyboard.PNG' height='150'></img></p><p class='small'>In this example, the correct answer is the <b>LEFT arrow</b>.</p></div><p>Are you ready? <b>Press ENTER to start</b></p>","response":"enter","trial_type":"html-keyboard-response","trial_index":53,"time_elapsed":106465,"internal_node_id":"0.0-13.0-3.0-1.0","screen_height":919,"screen_width":1920,"browser":"firefox","browser_version":"116.0.0","mobile":false,"os":"Windows 10","vsync_rate":143.88,"participant_id":"auz_test"},{"rt":null,"stimulus":"<p style=\"color: black; font-size: 80px; padding-left: 14%; padding-right: 7%; padding-top: 11%; padding-bottom: 12%\">+</p>","response":null,"screen":"fixation","trial_type":"html-keyboard-response","trial_index":54,"time_elapsed":106968,"internal_node_id":"0.0-13.0-3.0-2.0-0.0","screen_height":919,"screen_width":1920,"browser":"firefox","browser_version":"116.0.0","mobile":false,"os":"Windows 10","vsync_rate":143.88,"participant_id":"auz_test","trial_duration":0},{"rt":55,"stimulus":"stimuli/VerticalHorizontal_33.0000_-0.9000.png","response":"arrowleft","screen":"Trial","block":"VerticalHorizontal","correct_response":"arrowright","trial_type":"image-keyboard-response","trial_index":55,"time_elapsed":107032,"internal_node_id":"0.0-13.0-3.0-2.0-1.0","screen_height":919,"screen_width":1920,"browser":"firefox","browser_version":"116.0.0","mobile":false,"os":"Windows 10","vsync_rate":143.88,"participant_id":"auz_test","prestimulus_duration":503,"correct":false,"type":"VerticalHorizontal","block_number":1,"trial_number":17},{"rt":null,"stimulus":"<p style=\"color: black; font-size: 80px; padding-left: 44%; padding-right: 29%; padding-top: 8%; padding-bottom: 17%\">+</p>","response":null,"screen":"fixation","trial_type":"html-keyboard-response","trial_index":56,"time_elapsed":107033,"internal_node_id":"0.0-13.0-3.0-2.0-0.1","screen_height":919,"screen_width":1920,"browser":"firefox","browser_version":"116.0.0","mobile":false,"os":"Windows 10","vsync_rate":143.88,"participant_id":"auz_test","trial_duration":0},{"rt":39,"stimulus":"stimuli/VerticalHorizontal_-33.000_0.90000.png","response":"arrowright","screen":"Trial","block":"VerticalHorizontal","correct_response":"arrowleft","trial_type":"image-keyboard-response","trial_index":57,"time_elapsed":107080,"internal_node_id":"0.0-13.0-3.0-2.0-1.1","screen_height":919,"screen_width":1920,"browser":"firefox","browser_version":"116.0.0","mobile":false,"os":"Windows 10","vsync_rate":143.88,"participant_id":"auz_test","prestimulus_duration":1,"correct":false,"type":"VerticalHorizontal","block_number":1,"trial_number":18},{"rt":null,"stimulus":"<p style=\"color: black; font-size: 80px; padding-left: 16%; padding-right: 41%; padding-top: 4%; padding-bottom: 18%\">+</p>","response":null,"screen":"fixation","trial_type":"html-keyboard-response","trial_index":58,"time_elapsed":107081,"internal_node_id":"0.0-13.0-3.0-2.0-0.2","screen_height":919,"screen_width":1920,"browser":"firefox","browser_version":"116.0.0","mobile":false,"os":"Windows 10","vsync_rate":143.88,"participant_id":"auz_test","trial_duration":0},{"rt":102,"stimulus":"stimuli/VerticalHorizontal_4.50000_0.90000.png","response":"arrowleft","screen":"Trial","block":"VerticalHorizontal","correct_response":"arrowleft","trial_type":"image-keyboard-response","trial_index":59,"time_elapsed":107193,"internal_node_id":"0.0-13.0-3.0-2.0-1.2","screen_height":919,"screen_width":1920,"browser":"firefox","browser_version":"116.0.0","mobile":false,"os":"Windows 10","vsync_rate":143.88,"participant_id":"auz_test","prestimulus_duration":1,"correct":true,"type":"VerticalHorizontal","block_number":1,"trial_number":19},{"rt":null,"stimulus":"<p style=\"color: black; font-size: 80px; padding-left: 32%; padding-right: 48%; padding-top: 43%; padding-bottom: 43%\">+</p>","response":null,"screen":"fixation","trial_type":"html-keyboard-response","trial_index":60,"time_elapsed":107193,"internal_node_id":"0.0-13.0-3.0-2.0-0.3","screen_height":919,"screen_width":1920,"browser":"firefox","browser_version":"116.0.0","mobile":false,"os":"Windows 10","vsync_rate":143.88,"participant_id":"auz_test","trial_duration":0},{"rt":23,"stimulus":"stimuli/VerticalHorizontal_-33.000_-0.9000.png","response":"arrowright","screen":"Trial","block":"VerticalHorizontal","correct_response":"arrowright","trial_type":"image-keyboard-response","trial_index":61,"time_elapsed":107224,"internal_node_id":"0.0-13.0-3.0-2.0-1.3","screen_height":919,"screen_width":1920,"browser":"firefox","browser_version":"116.0.0","mobile":false,"os":"Windows 10","vsync_rate":143.88,"participant_id":"auz_test","prestimulus_duration":0,"correct":true,"type":"VerticalHorizontal","block_number":1,"trial_number":20},{"rt":null,"stimulus":"<p style=\"color: black; font-size: 80px; padding-left: 36%; padding-right: 43%; padding-top: 16%; padding-bottom: 38%\">+</p>","response":null,"screen":"fixation","trial_type":"html-keyboard-response","trial_index":62,"time_elapsed":107225,"internal_node_id":"0.0-13.0-3.0-2.0-0.4","screen_height":919,"screen_width":1920,"browser":"firefox","browser_version":"116.0.0","mobile":false,"os":"Windows 10","vsync_rate":143.88,"participant_id":"auz_test","trial_duration":0},{"rt":119,"stimulus":"stimuli/VerticalHorizontal_-4.5000_-0.9000.png","response":"arrowleft","screen":"Trial","block":"VerticalHorizontal","correct_response":"arrowright","trial_type":"image-keyboard-response","trial_index":63,"time_elapsed":107352,"internal_node_id":"0.0-13.0-3.0-2.0-1.4","screen_height":919,"screen_width":1920,"browser":"firefox","browser_version":"116.0.0","mobile":false,"os":"Windows 10","vsync_rate":143.88,"participant_id":"auz_test","prestimulus_duration":1,"correct":false,"type":"VerticalHorizontal","block_number":1,"trial_number":21},{"rt":null,"stimulus":"<p style=\"color: black; font-size: 80px; padding-left: 13%; padding-right: 28%; padding-top: 14%; padding-bottom: 47%\">+</p>","response":null,"screen":"fixation","trial_type":"html-keyboard-response","trial_index":64,"time_elapsed":107353,"internal_node_id":"0.0-13.0-3.0-2.0-0.5","screen_height":919,"screen_width":1920,"browser":"firefox","browser_version":"116.0.0","mobile":false,"os":"Windows 10","vsync_rate":143.88,"participant_id":"auz_test","trial_duration":0},{"rt":117,"stimulus":"stimuli/VerticalHorizontal_4.50000_-0.9000.png","response":"arrowright","screen":"Trial","block":"VerticalHorizontal","correct_response":"arrowright","trial_type":"image-keyboard-response","trial_index":65,"time_elapsed":107480,"internal_node_id":"0.0-13.0-3.0-2.0-1.5","screen_height":919,"screen_width":1920,"browser":"firefox","browser_version":"116.0.0","mobile":false,"os":"Windows 10","vsync_rate":143.88,"participant_id":"auz_test","prestimulus_duration":1,"correct":true,"type":"VerticalHorizontal","block_number":1,"trial_number":22},{"rt":null,"stimulus":"<p style=\"color: black; font-size: 80px; padding-left: 22%; padding-right: 12%; padding-top: 5%; padding-bottom: 11%\">+</p>","response":null,"screen":"fixation","trial_type":"html-keyboard-response","trial_index":66,"time_elapsed":107482,"internal_node_id":"0.0-13.0-3.0-2.0-0.6","screen_height":919,"screen_width":1920,"browser":"firefox","browser_version":"116.0.0","mobile":false,"os":"Windows 10","vsync_rate":143.88,"participant_id":"auz_test","trial_duration":0},{"rt":15,"stimulus":"stimuli/VerticalHorizontal_-4.5000_0.90000.png","response":"arrowleft","screen":"Trial","block":"VerticalHorizontal","correct_response":"arrowleft","trial_type":"image-keyboard-response","trial_index":67,"time_elapsed":107505,"internal_node_id":"0.0-13.0-3.0-2.0-1.6","screen_height":919,"screen_width":1920,"browser":"firefox","browser_version":"116.0.0","mobile":false,"os":"Windows 10","vsync_rate":143.88,"participant_id":"auz_test","prestimulus_duration":2,"correct":true,"type":"VerticalHorizontal","block_number":1,"trial_number":23},{"rt":null,"stimulus":"<p style=\"color: black; font-size: 80px; padding-left: 7%; padding-right: 12%; padding-top: 24%; padding-bottom: 22%\">+</p>","response":null,"screen":"fixation","trial_type":"html-keyboard-response","trial_index":68,"time_elapsed":107506,"internal_node_id":"0.0-13.0-3.0-2.0-0.7","screen_height":919,"screen_width":1920,"browser":"firefox","browser_version":"116.0.0","mobile":false,"os":"Windows 10","vsync_rate":143.88,"participant_id":"auz_test","trial_duration":0},{"rt":123,"stimulus":"stimuli/VerticalHorizontal_33.0000_0.90000.png","response":"arrowright","screen":"Trial","block":"VerticalHorizontal","correct_response":"arrowleft","trial_type":"image-keyboard-response","trial_index":69,"time_elapsed":107640,"internal_node_id":"0.0-13.0-3.0-2.0-1.7","screen_height":919,"screen_width":1920,"browser":"firefox","browser_version":"116.0.0","mobile":false,"os":"Windows 10","vsync_rate":143.88,"participant_id":"auz_test","prestimulus_duration":1,"correct":false,"type":"VerticalHorizontal","block_number":1,"trial_number":24},{"rt":1248,"stimulus":"<p style='color:rgb(76,175,80);'> Correct Responses: <b>50.00%</b></p><hr><p style='color:rgb(139, 195, 74);'> Average Response Time: <b>74.13</b> ms.</p>","response":0,"screen":"practice_block_results","trial_type":"html-button-response","trial_index":70,"time_elapsed":108888,"internal_node_id":"0.0-13.0-3.0-3.0","screen_height":919,"screen_width":1920,"browser":"firefox","browser_version":"116.0.0","mobile":false,"os":"Windows 10","vsync_rate":143.88,"participant_id":"auz_test"},{"rt":596,"stimulus":"<p><b>TRAINING COMPLETED</b></p><p>In the next phase, there will be more trials, and some might be harder too.<br> Moreover, after each illusion block, a <b>score</b> will be calculated based on speed (time you took to answer) and accuracy (number of errors).</p><p><i>Try to keep up a high score!</i></p><br><p>Note that it can be <i>really</i> challenging at times, so you will need to rely on your <b>intuition</b> and gut feeling to answer as fast as you can without making errors.</p><p>Each illusion block will be repeated two times (so that you have the opportunity to improve your score), but the order of the blocks is random.</p><p>Remember, your goal is to be as <b>fast</b> and <b>accurate</b> as possible. Good luck!</p><br>","response":0,"screen":"practice_debrief","trial_type":"html-button-response","trial_index":71,"time_elapsed":109989,"internal_node_id":"0.0-13.0-4.0","screen_height":919,"screen_width":1920,"browser":"firefox","browser_version":"116.0.0","mobile":false,"os":"Windows 10","vsync_rate":143.88,"participant_id":"auz_test"},{"success":true,"timeout":false,"failed_images":[],"failed_audio":[],"failed_video":[],"trial_type":"preload","trial_index":72,"time_elapsed":110125,"internal_node_id":"0.0-14.0-0.0-0.0","screen_height":919,"screen_width":1920,"browser":"firefox","browser_version":"116.0.0","mobile":false,"os":"Windows 10","vsync_rate":143.88,"participant_id":"auz_test"},{"rt":970,"stimulus":"<p>In this part, two horizontal red lines will appear one above the other.</p><p>Your task is to select which <b>line is longer</b> in length as fast as you can, without making errors.</p><p>Don't get distracted by the surrounding black arrows at the end of the red lines!</p><p>Press <b>the UP or the DOWN arrow</b> to indicate where is the longer <b>red line.</b></p><div style='float: center'><img src='materials/instructions/MullerLyer_Demo.png' height='300'></img><p><img src='utils/answer/answer_updown_keyboard.PNG' height='150'></img></p><p class='small'>In this example, the correct answer is the <b>UP arrow</b>.</p></div><p>Are you ready? <b>Press ENTER to start</b></p>","response":"enter","trial_type":"html-keyboard-response","trial_index":73,"time_elapsed":111097,"internal_node_id":"0.0-14.0-0.0-1.0","screen_height":919,"screen_width":1920,"browser":"firefox","browser_version":"116.0.0","mobile":false,"os":"Windows 10","vsync_rate":143.88,"participant_id":"auz_test"},{"rt":null,"stimulus":"<p style=\"color: black; font-size: 80px; padding-left: 13%; padding-right: 45%; padding-top: 9%; padding-bottom: 40%\">+</p>","response":null,"screen":"fixation","trial_type":"html-keyboard-response","trial_index":74,"time_elapsed":111619,"internal_node_id":"0.0-14.0-0.0-2.0-0.0","screen_height":919,"screen_width":1920,"browser":"firefox","browser_version":"116.0.0","mobile":false,"os":"Windows 10","vsync_rate":143.88,"participant_id":"auz_test","trial_duration":0},{"rt":37,"stimulus":"stimuli/MullerLyer_-12.000_-0.24183.png","response":"arrowup","screen":"Trial","block":"MullerLyer","correct_response":"arrowdown","trial_type":"image-keyboard-response","trial_index":75,"time_elapsed":111665,"internal_node_id":"0.0-14.0-0.0-2.0-1.0","screen_height":919,"screen_width":1920,"browser":"firefox","browser_version":"116.0.0","mobile":false,"os":"Windows 10","vsync_rate":143.88,"participant_id":"auz_test","prestimulus_duration":522,"correct":false,"type":"MullerLyer","block_number":1,"trial_number":25},{"rt":null,"stimulus":"<p style=\"color: black; font-size: 80px; padding-left: 44%; padding-right: 32%; padding-top: 26%; padding-bottom: 40%\">+</p>","response":null,"screen":"fixation","trial_type":"html-keyboard-response","trial_index":76,"time_elapsed":111666,"internal_node_id":"0.0-14.0-0.0-2.0-0.1","screen_height":919,"screen_width":1920,"browser":"firefox","browser_version":"116.0.0","mobile":false,"os":"Windows 10","vsync_rate":143.88,"participant_id":"auz_test","trial_duration":0},{"rt":79,"stimulus":"stimuli/MullerLyer_24.0000_-0.0450.png","response":"arrowdown","screen":"Trial","block":"MullerLyer","correct_response":"arrowdown","trial_type":"image-keyboard-response","trial_index":77,"time_elapsed":111752,"internal_node_id":"0.0-14.0-0.0-2.0-1.1","screen_height":919,"screen_width":1920,"browser":"firefox","browser_version":"116.0.0","mobile":false,"os":"Windows 10","vsync_rate":143.88,"participant_id":"auz_test","prestimulus_duration":1,"correct":true,"type":"MullerLyer","block_number":1,"trial_number":26},{"rt":null,"stimulus":"<p style=\"color: black; font-size: 80px; padding-left: 9%; padding-right: 2%; padding-top: 37%; padding-bottom: 22%\">+</p>","response":null,"screen":"fixation","trial_type":"html-keyboard-response","trial_index":78,"time_elapsed":111753,"internal_node_id":"0.0-14.0-0.0-2.0-0.2","screen_height":919,"screen_width":1920,"browser":"firefox","browser_version":"116.0.0","mobile":false,"os":"Windows 10","vsync_rate":143.88,"participant_id":"auz_test","trial_duration":0},{"rt":70,"stimulus":"stimuli/MullerLyer_-12.000_0.24183.png","response":"arrowup","screen":"Trial","block":"MullerLyer","correct_response":"arrowup","trial_type":"image-keyboard-response","trial_index":79,"time_elapsed":111832,"internal_node_id":"0.0-14.0-0.0-2.0-1.2","screen_height":919,"screen_width":1920,"browser":"firefox","browser_version":"116.0.0","mobile":false,"os":"Windows 10","vsync_rate":143.88,"participant_id":"auz_test","prestimulus_duration":1,"correct":true,"type":"MullerLyer","block_number":1,"trial_number":27},{"rt":null,"stimulus":"<p style=\"color: black; font-size: 80px; padding-left: 3%; padding-right: 20%; padding-top: 30%; padding-bottom: 15%\">+</p>","response":null,"screen":"fixation","trial_type":"html-keyboard-response","trial_index":80,"time_elapsed":111833,"internal_node_id":"0.0-14.0-0.0-2.0-0.3","screen_height":919,"screen_width":1920,"browser":"firefox","browser_version":"116.0.0","mobile":false,"os":"Windows 10","vsync_rate":143.88,"participant_id":"auz_test","trial_duration":0},{"rt":54,"stimulus":"stimuli/MullerLyer_12.0000_0.37364.png","response":"arrowdown","screen":"Trial","block":"MullerLyer","correct_response":"arrowup","trial_type":"image-keyboard-response","trial_index":81,"time_elapsed":111897,"internal_node_id":"0.0-14.0-0.0-2.0-1.3","screen_height":919,"screen_width":1920,"browser":"firefox","browser_version":"116.0.0","mobile":false,"os":"Windows 10","vsync_rate":143.88,"participant_id":"auz_test","prestimulus_duration":1,"correct":false,"type":"MullerLyer","block_number":1,"trial_number":28},{"rt":null,"stimulus":"<p style=\"color: black; font-size: 80px; padding-left: 23%; padding-right: 49%; padding-top: 25%; padding-bottom: 14%\">+</p>","response":null,"screen":"fixation","trial_type":"html-keyboard-response","trial_index":82,"time_elapsed":111897,"internal_node_id":"0.0-14.0-0.0-2.0-0.4","screen_height":919,"screen_width":1920,"browser":"firefox","browser_version":"116.0.0","mobile":false,"os":"Windows 10","vsync_rate":143.88,"participant_id":"auz_test","trial_duration":0},{"rt":63,"stimulus":"stimuli/MullerLyer_-30.000_-0.24183.png","response":"arrowup","screen":"Trial","block":"MullerLyer","correct_response":"arrowdown","trial_type":"image-keyboard-response","trial_index":83,"time_elapsed":111969,"internal_node_id":"0.0-14.0-0.0-2.0-1.4","screen_height":919,"screen_width":1920,"browser":"firefox","browser_version":"116.0.0","mobile":false,"os":"Windows 10","vsync_rate":143.88,"participant_id":"auz_test","prestimulus_duration":0,"correct":false,"type":"MullerLyer","block_number":1,"trial_number":29},{"rt":null,"stimulus":"<p style=\"color: black; font-size: 80px; padding-left: 21%; padding-right: 50%; padding-top: 7%; padding-bottom: 29%\">+</p>","response":null,"screen":"fixation","trial_type":"html-keyboard-response","trial_index":84,"time_elapsed":111970,"internal_node_id":"0.0-14.0-0.0-2.0-0.5","screen_height":919,"screen_width":1920,"browser":"firefox","browser_version":"116.0.0","mobile":false,"os":"Windows 10","vsync_rate":143.88,"participant_id":"auz_test","trial_duration":0},{"rt":55,"stimulus":"stimuli/MullerLyer_24.0000_0.04500.png","response":"arrowdown","screen":"Trial","block":"MullerLyer","correct_response":"arrowup","trial_type":"image-keyboard-response","trial_index":85,"time_elapsed":112033,"internal_node_id":"0.0-14.0-0.0-2.0-1.5","screen_height":919,"screen_width":1920,"browser":"firefox","browser_version":"116.0.0","mobile":false,"os":"Windows 10","vsync_rate":143.88,"participant_id":"auz_test","prestimulus_duration":1,"correct":false,"type":"MullerLyer","block_number":1,"trial_number":30},{"rt":null,"stimulus":"<p style=\"color: black; font-size: 80px; padding-left: 46%; padding-right: 20%; padding-top: 2%; padding-bottom: 43%\">+</p>","response":null,"screen":"fixation","trial_type":"html-keyboard-response","trial_index":86,"time_elapsed":112034,"internal_node_id":"0.0-14.0-0.0-2.0-0.6","screen_height":919,"screen_width":1920,"browser":"firefox","browser_version":"116.0.0","mobile":false,"os":"Windows 10","vsync_rate":143.88,"participant_id":"auz_test","trial_duration":0},{"rt":93,"stimulus":"stimuli/MullerLyer_-12.000_-0.1337.png","response":"arrowup","screen":"Trial","block":"MullerLyer","correct_response":"arrowdown","trial_type":"image-keyboard-response","trial_index":87,"time_elapsed":112137,"internal_node_id":"0.0-14.0-0.0-2.0-1.6","screen_height":919,"screen_width":1920,"browser":"firefox","browser_version":"116.0.0","mobile":false,"os":"Windows 10","vsync_rate":143.88,"participant_id":"auz_test","prestimulus_duration":1,"correct":false,"type":"MullerLyer","block_number":1,"trial_number":31},{"rt":null,"stimulus":"<p style=\"color: black; font-size: 80px; padding-left: 17%; padding-right: 12%; padding-top: 21%; padding-bottom: 1%\">+</p>","response":null,"screen":"fixation","trial_type":"html-keyboard-response","trial_index":88,"time_elapsed":112138,"internal_node_id":"0.0-14.0-0.0-2.0-0.7","screen_height":919,"screen_width":1920,"browser":"firefox","browser_version":"116.0.0","mobile":false,"os":"Windows 10","vsync_rate":143.88,"participant_id":"auz_test","trial_duration":0},{"rt":31,"stimulus":"stimuli/MullerLyer_30.0000_-0.24183.png","response":"arrowdown","screen":"Trial","block":"MullerLyer","correct_response":"arrowdown","trial_type":"image-keyboard-response","trial_index":89,"time_elapsed":112177,"internal_node_id":"0.0-14.0-0.0-2.0-1.7","screen_height":919,"screen_width":1920,"browser":"firefox","browser_version":"116.0.0","mobile":false,"os":"Windows 10","vsync_rate":143.88,"participant_id":"auz_test","prestimulus_duration":1,"correct":true,"type":"MullerLyer","block_number":1,"trial_number":32},{"rt":null,"stimulus":"<p style=\"color: black; font-size: 80px; padding-left: 45%; padding-right: 4%; padding-top: 32%; padding-bottom: 4%\">+</p>","response":null,"screen":"fixation","trial_type":"html-keyboard-response","trial_index":90,"time_elapsed":112178,"internal_node_id":"0.0-14.0-0.0-2.0-0.8","screen_height":919,"screen_width":1920,"browser":"firefox","browser_version":"116.0.0","mobile":false,"os":"Windows 10","vsync_rate":143.88,"participant_id":"auz_test","trial_duration":0},{"rt":111,"stimulus":"stimuli/MullerLyer_-18.000_0.13370.png","response":"arrowup","screen":"Trial","block":"MullerLyer","correct_response":"arrowup","trial_type":"image-keyboard-response","trial_index":91,"time_elapsed":112296,"internal_node_id":"0.0-14.0-0.0-2.0-1.8","screen_height":919,"screen_width":1920,"browser":"firefox","browser_version":"116.0.0","mobile":false,"os":"Windows 10","vsync_rate":143.88,"participant_id":"auz_test","prestimulus_duration":1,"correct":true,"type":"MullerLyer","block_number":1,"trial_number":33},{"rt":null,"stimulus":"<p style=\"color: black; font-size: 80px; padding-left: 9%; padding-right: 5%; padding-top: 19%; padding-bottom: 17%\">+</p>","response":null,"screen":"fixation","trial_type":"html-keyboard-response","trial_index":92,"time_elapsed":112297,"internal_node_id":"0.0-14.0-0.0-2.0-0.9","screen_height":919,"screen_width":1920,"browser":"firefox","browser_version":"116.0.0","mobile":false,"os":"Windows 10","vsync_rate":143.88,"participant_id":"auz_test","trial_duration":0},{"rt":1,"stimulus":"stimuli/MullerLyer_18.0000_-0.0450.png","response":"arrowdown","screen":"Trial","block":"MullerLyer","correct_response":"arrowdown","trial_type":"image-keyboard-response","trial_index":93,"time_elapsed":112308,"internal_node_id":"0.0-14.0-0.0-2.0-1.9","screen_height":919,"screen_width":1920,"browser":"firefox","browser_version":"116.0.0","mobile":false,"os":"Windows 10","vsync_rate":143.88,"participant_id":"auz_test","prestimulus_duration":1,"correct":true,"type":"MullerLyer","block_number":1,"trial_number":34},{"rt":null,"stimulus":"<p style=\"color: black; font-size: 80px; padding-left: 35%; padding-right: 17%; padding-top: 23%; padding-bottom: 41%\">+</p>","response":null,"screen":"fixation","trial_type":"html-keyboard-response","trial_index":94,"time_elapsed":112309,"internal_node_id":"0.0-14.0-0.0-2.0-0.10","screen_height":919,"screen_width":1920,"browser":"firefox","browser_version":"116.0.0","mobile":false,"os":"Windows 10","vsync_rate":143.88,"participant_id":"auz_test","trial_duration":0},{"rt":132,"stimulus":"stimuli/MullerLyer_-6.0000_0.37364.png","response":"arrowdown","screen":"Trial","block":"MullerLyer","correct_response":"arrowup","trial_type":"image-keyboard-response","trial_index":95,"time_elapsed":112448,"internal_node_id":"0.0-14.0-0.0-2.0-1.10","screen_height":919,"screen_width":1920,"browser":"firefox","browser_version":"116.0.0","mobile":false,"os":"Windows 10","vsync_rate":143.88,"participant_id":"auz_test","prestimulus_duration":1,"correct":false,"type":"MullerLyer","block_number":1,"trial_number":35},{"rt":null,"stimulus":"<p style=\"color: black; font-size: 80px; padding-left: 9%; padding-right: 17%; padding-top: 4%; padding-bottom: 24%\">+</p>","response":null,"screen":"fixation","trial_type":"html-keyboard-response","trial_index":96,"time_elapsed":112449,"internal_node_id":"0.0-14.0-0.0-2.0-0.11","screen_height":919,"screen_width":1920,"browser":"firefox","browser_version":"116.0.0","mobile":false,"os":"Windows 10","vsync_rate":143.88,"participant_id":"auz_test","trial_duration":0},{"rt":135,"stimulus":"stimuli/MullerLyer_-6.0000_0.04500.png","response":"arrowdown","screen":"Trial","block":"MullerLyer","correct_response":"arrowup","trial_type":"image-keyboard-response","trial_index":97,"time_elapsed":112592,"internal_node_id":"0.0-14.0-0.0-2.0-1.11","screen_height":919,"screen_width":1920,"browser":"firefox","browser_version":"116.0.0","mobile":false,"os":"Windows 10","vsync_rate":143.88,"participant_id":"auz_test","prestimulus_duration":1,"correct":false,"type":"MullerLyer","block_number":1,"trial_number":36},{"rt":null,"stimulus":"<p style=\"color: black; font-size: 80px; padding-left: 20%; padding-right: 6%; padding-top: 35%; padding-bottom: 45%\">+</p>","response":null,"screen":"fixation","trial_type":"html-keyboard-response","trial_index":98,"time_elapsed":112593,"internal_node_id":"0.0-14.0-0.0-2.0-0.12","screen_height":919,"screen_width":1920,"browser":"firefox","browser_version":"116.0.0","mobile":false,"os":"Windows 10","vsync_rate":143.88,"participant_id":"auz_test","trial_duration":0},{"rt":126,"stimulus":"stimuli/MullerLyer_-6.0000_0.24183.png","response":"arrowdown","screen":"Trial","block":"MullerLyer","correct_response":"arrowup","trial_type":"image-keyboard-response","trial_index":99,"time_elapsed":112728,"internal_node_id":"0.0-14.0-0.0-2.0-1.12","screen_height":919,"screen_width":1920,"browser":"firefox","browser_version":"116.0.0","mobile":false,"os":"Windows 10","vsync_rate":143.88,"participant_id":"auz_test","prestimulus_duration":1,"correct":false,"type":"MullerLyer","block_number":1,"trial_number":37},{"rt":null,"stimulus":"<p style=\"color: black; font-size: 80px; padding-left: 22%; padding-right: 3%; padding-top: 21%; padding-bottom: 3%\">+</p>","response":null,"screen":"fixation","trial_type":"html-keyboard-response","trial_index":100,"time_elapsed":112729,"internal_node_id":"0.0-14.0-0.0-2.0-0.13","screen_height":919,"screen_width":1920,"browser":"firefox","browser_version":"116.0.0","mobile":false,"os":"Windows 10","vsync_rate":143.88,"participant_id":"auz_test","trial_duration":0},{"rt":14,"stimulus":"stimuli/MullerLyer_18.0000_0.04500.png","response":"arrowup","screen":"Trial","block":"MullerLyer","correct_response":"arrowup","trial_type":"image-keyboard-response","trial_index":101,"time_elapsed":112752,"internal_node_id":"0.0-14.0-0.0-2.0-1.13","screen_height":919,"screen_width":1920,"browser":"firefox","browser_version":"116.0.0","mobile":false,"os":"Windows 10","vsync_rate":143.88,"participant_id":"auz_test","prestimulus_duration":1,"correct":true,"type":"MullerLyer","block_number":1,"trial_number":38},{"rt":null,"stimulus":"<p style=\"color: black; font-size: 80px; padding-left: 3%; padding-right: 45%; padding-top: 27%; padding-bottom: 42%\">+</p>","response":null,"screen":"fixation","trial_type":"html-keyboard-response","trial_index":102,"time_elapsed":112753,"internal_node_id":"0.0-14.0-0.0-2.0-0.14","screen_height":919,"screen_width":1920,"browser":"firefox","browser_version":"116.0.0","mobile":false,"os":"Windows 10","vsync_rate":143.88,"participant_id":"auz_test","trial_duration":0},{"rt":111,"stimulus":"stimuli/MullerLyer_12.0000_-0.24183.png","response":"arrowdown","screen":"Trial","block":"MullerLyer","correct_response":"arrowdown","trial_type":"image-keyboard-response","trial_index":103,"time_elapsed":112872,"internal_node_id":"0.0-14.0-0.0-2.0-1.14","screen_height":919,"screen_width":1920,"browser":"firefox","browser_version":"116.0.0","mobile":false,"os":"Windows 10","vsync_rate":143.88,"participant_id":"auz_test","prestimulus_duration":1,"correct":true,"type":"MullerLyer","block_number":1,"trial_number":39},{"rt":null,"stimulus":"<p style=\"color: black; font-size: 80px; padding-left: 11%; padding-right: 12%; padding-top: 3%; padding-bottom: 44%\">+</p>","response":null,"screen":"fixation","trial_type":"html-keyboard-response","trial_index":104,"time_elapsed":112873,"internal_node_id":"0.0-14.0-0.0-2.0-0.15","screen_height":919,"screen_width":1920,"browser":"firefox","browser_version":"116.0.0","mobile":false,"os":"Windows 10","vsync_rate":143.88,"participant_id":"auz_test","trial_duration":0},{"rt":47,"stimulus":"stimuli/MullerLyer_-12.000_-0.37364.png","response":"arrowup","screen":"Trial","block":"MullerLyer","correct_response":"arrowdown","trial_type":"image-keyboard-response","trial_index":105,"time_elapsed":112928,"internal_node_id":"0.0-14.0-0.0-2.0-1.15","screen_height":919,"screen_width":1920,"browser":"firefox","browser_version":"116.0.0","mobile":false,"os":"Windows 10","vsync_rate":143.88,"participant_id":"auz_test","prestimulus_duration":1,"correct":false,"type":"MullerLyer","block_number":1,"trial_number":40},{"rt":null,"stimulus":"<p style=\"color: black; font-size: 80px; padding-left: 49%; padding-right: 8%; padding-top: 39%; padding-bottom: 40%\">+</p>","response":null,"screen":"fixation","trial_type":"html-keyboard-response","trial_index":106,"time_elapsed":112929,"internal_node_id":"0.0-14.0-0.0-2.0-0.16","screen_height":919,"screen_width":1920,"browser":"firefox","browser_version":"116.0.0","mobile":false,"os":"Windows 10","vsync_rate":143.88,"participant_id":"auz_test","trial_duration":0},{"rt":78,"stimulus":"stimuli/MullerLyer_-12.000_-0.0450.png","response":"arrowdown","screen":"Trial","block":"MullerLyer","correct_response":"arrowdown","trial_type":"image-keyboard-response","trial_index":107,"time_elapsed":113016,"internal_node_id":"0.0-14.0-0.0-2.0-1.16","screen_height":919,"screen_width":1920,"browser":"firefox","browser_version":"116.0.0","mobile":false,"os":"Windows 10","vsync_rate":143.88,"participant_id":"auz_test","prestimulus_duration":1,"correct":true,"type":"MullerLyer","block_number":1,"trial_number":41},{"rt":null,"stimulus":"<p style=\"color: black; font-size: 80px; padding-left: 3%; padding-right: 36%; padding-top: 17%; padding-bottom: 23%\">+</p>","response":null,"screen":"fixation","trial_type":"html-keyboard-response","trial_index":108,"time_elapsed":113017,"internal_node_id":"0.0-14.0-0.0-2.0-0.17","screen_height":919,"screen_width":1920,"browser":"firefox","browser_version":"116.0.0","mobile":false,"os":"Windows 10","vsync_rate":143.88,"participant_id":"auz_test","trial_duration":0},{"rt":70,"stimulus":"stimuli/MullerLyer_12.0000_-0.37364.png","response":"arrowup","screen":"Trial","block":"MullerLyer","correct_response":"arrowdown","trial_type":"image-keyboard-response","trial_index":109,"time_elapsed":113096,"internal_node_id":"0.0-14.0-0.0-2.0-1.17","screen_height":919,"screen_width":1920,"browser":"firefox","browser_version":"116.0.0","mobile":false,"os":"Windows 10","vsync_rate":143.88,"participant_id":"auz_test","prestimulus_duration":1,"correct":false,"type":"MullerLyer","block_number":1,"trial_number":42},{"rt":null,"stimulus":"<p style=\"color: black; font-size: 80px; padding-left: 11%; padding-right: 36%; padding-top: 9%; padding-bottom: 8%\">+</p>","response":null,"screen":"fixation","trial_type":"html-keyboard-response","trial_index":110,"time_elapsed":113103,"internal_node_id":"0.0-14.0-0.0-2.0-0.18","screen_height":919,"screen_width":1920,"browser":"firefox","browser_version":"116.0.0","mobile":false,"os":"Windows 10","vsync_rate":143.88,"participant_id":"auz_test","trial_duration":0},{"rt":57,"stimulus":"stimuli/MullerLyer_-18.000_-0.37364.png","response":"arrowdown","screen":"Trial","block":"MullerLyer","correct_response":"arrowdown","trial_type":"image-keyboard-response","trial_index":111,"time_elapsed":113168,"internal_node_id":"0.0-14.0-0.0-2.0-1.18","screen_height":919,"screen_width":1920,"browser":"firefox","browser_version":"116.0.0","mobile":false,"os":"Windows 10","vsync_rate":143.88,"participant_id":"auz_test","prestimulus_duration":7,"correct":true,"type":"MullerLyer","block_number":1,"trial_number":43},{"rt":null,"stimulus":"<p style=\"color: black; font-size: 80px; padding-left: 37%; padding-right: 17%; padding-top: 5%; padding-bottom: 46%\">+</p>","response":null,"screen":"fixation","trial_type":"html-keyboard-response","trial_index":112,"time_elapsed":113170,"internal_node_id":"0.0-14.0-0.0-2.0-0.19","screen_height":919,"screen_width":1920,"browser":"firefox","browser_version":"116.0.0","mobile":false,"os":"Windows 10","vsync_rate":143.88,"participant_id":"auz_test","trial_duration":0},{"rt":77,"stimulus":"stimuli/MullerLyer_18.0000_0.24183.png","response":"arrowup","screen":"Trial","block":"MullerLyer","correct_response":"arrowup","trial_type":"image-keyboard-response","trial_index":113,"time_elapsed":113256,"internal_node_id":"0.0-14.0-0.0-2.0-1.19","screen_height":919,"screen_width":1920,"browser":"firefox","browser_version":"116.0.0","mobile":false,"os":"Windows 10","vsync_rate":143.88,"participant_id":"auz_test","prestimulus_duration":2,"correct":true,"type":"MullerLyer","block_number":1,"trial_number":44},{"rt":null,"stimulus":"<p style=\"color: black; font-size: 80px; padding-left: 14%; padding-right: 41%; padding-top: 14%; padding-bottom: 14%\">+</p>","response":null,"screen":"fixation","trial_type":"html-keyboard-response","trial_index":114,"time_elapsed":113257,"internal_node_id":"0.0-14.0-0.0-2.0-0.20","screen_height":919,"screen_width":1920,"browser":"firefox","browser_version":"116.0.0","mobile":false,"os":"Windows 10","vsync_rate":143.88,"participant_id":"auz_test","trial_duration":0},{"rt":35,"stimulus":"stimuli/MullerLyer_-24.000_0.13370.png","response":"arrowdown","screen":"Trial","block":"MullerLyer","correct_response":"arrowup","trial_type":"image-keyboard-response","trial_index":115,"time_elapsed":113304,"internal_node_id":"0.0-14.0-0.0-2.0-1.20","screen_height":919,"screen_width":1920,"browser":"firefox","browser_version":"116.0.0","mobile":false,"os":"Windows 10","vsync_rate":143.88,"participant_id":"auz_test","prestimulus_duration":1,"correct":false,"type":"MullerLyer","block_number":1,"trial_number":45},{"rt":null,"stimulus":"<p style=\"color: black; font-size: 80px; padding-left: 46%; padding-right: 21%; padding-top: 7%; padding-bottom: 29%\">+</p>","response":null,"screen":"fixation","trial_type":"html-keyboard-response","trial_index":116,"time_elapsed":113305,"internal_node_id":"0.0-14.0-0.0-2.0-0.21","screen_height":919,"screen_width":1920,"browser":"firefox","browser_version":"116.0.0","mobile":false,"os":"Windows 10","vsync_rate":143.88,"participant_id":"auz_test","trial_duration":0},{"rt":103,"stimulus":"stimuli/MullerLyer_6.00000_0.24183.png","response":"arrowup","screen":"Trial","block":"MullerLyer","correct_response":"arrowup","trial_type":"image-keyboard-response","trial_index":117,"time_elapsed":113416,"internal_node_id":"0.0-14.0-0.0-2.0-1.21","screen_height":919,"screen_width":1920,"browser":"firefox","browser_version":"116.0.0","mobile":false,"os":"Windows 10","vsync_rate":143.88,"participant_id":"auz_test","prestimulus_duration":1,"correct":true,"type":"MullerLyer","block_number":1,"trial_number":46},{"rt":null,"stimulus":"<p style=\"color: black; font-size: 80px; padding-left: 47%; padding-right: 23%; padding-top: 12%; padding-bottom: 38%\">+</p>","response":null,"screen":"fixation","trial_type":"html-keyboard-response","trial_index":118,"time_elapsed":113416,"internal_node_id":"0.0-14.0-0.0-2.0-0.22","screen_height":919,"screen_width":1920,"browser":"firefox","browser_version":"116.0.0","mobile":false,"os":"Windows 10","vsync_rate":143.88,"participant_id":"auz_test","trial_duration":0},{"rt":23,"stimulus":"stimuli/MullerLyer_-6.0000_-0.1337.png","response":"arrowdown","screen":"Trial","block":"MullerLyer","correct_response":"arrowdown","trial_type":"image-keyboard-response","trial_index":119,"time_elapsed":113448,"internal_node_id":"0.0-14.0-0.0-2.0-1.22","screen_height":919,"screen_width":1920,"browser":"firefox","browser_version":"116.0.0","mobile":false,"os":"Windows 10","vsync_rate":143.88,"participant_id":"auz_test","prestimulus_duration":0,"correct":true,"type":"MullerLyer","block_number":1,"trial_number":47},{"rt":null,"stimulus":"<p style=\"color: black; font-size: 80px; padding-left: 39%; padding-right: 41%; padding-top: 39%; padding-bottom: 36%\">+</p>","response":null,"screen":"fixation","trial_type":"html-keyboard-response","trial_index":120,"time_elapsed":113449,"internal_node_id":"0.0-14.0-0.0-2.0-0.23","screen_height":919,"screen_width":1920,"browser":"firefox","browser_version":"116.0.0","mobile":false,"os":"Windows 10","vsync_rate":143.88,"participant_id":"auz_test","trial_duration":0},{"rt":119,"stimulus":"stimuli/MullerLyer_30.0000_-0.37364.png","response":"arrowup","screen":"Trial","block":"MullerLyer","correct_response":"arrowdown","trial_type":"image-keyboard-response","trial_index":121,"time_elapsed":113576,"internal_node_id":"0.0-14.0-0.0-2.0-1.23","screen_height":919,"screen_width":1920,"browser":"firefox","browser_version":"116.0.0","mobile":false,"os":"Windows 10","vsync_rate":143.88,"participant_id":"auz_test","prestimulus_duration":1,"correct":false,"type":"MullerLyer","block_number":1,"trial_number":48},{"rt":null,"stimulus":"<p style=\"color: black; font-size: 80px; padding-left: 18%; padding-right: 18%; padding-top: 34%; padding-bottom: 14%\">+</p>","response":null,"screen":"fixation","trial_type":"html-keyboard-response","trial_index":122,"time_elapsed":113577,"internal_node_id":"0.0-14.0-0.0-2.0-0.24","screen_height":919,"screen_width":1920,"browser":"firefox","browser_version":"116.0.0","mobile":false,"os":"Windows 10","vsync_rate":143.88,"participant_id":"auz_test","trial_duration":0},{"rt":1,"stimulus":"stimuli/MullerLyer_-6.0000_0.13370.png","response":"arrowdown","screen":"Trial","block":"MullerLyer","correct_response":"arrowup","trial_type":"image-keyboard-response","trial_index":123,"time_elapsed":113587,"internal_node_id":"0.0-14.0-0.0-2.0-1.24","screen_height":919,"screen_width":1920,"browser":"firefox","browser_version":"116.0.0","mobile":false,"os":"Windows 10","vsync_rate":143.88,"participant_id":"auz_test","prestimulus_duration":1,"correct":false,"type":"MullerLyer","block_number":1,"trial_number":49},{"rt":null,"stimulus":"<p style=\"color: black; font-size: 80px; padding-left: 22%; padding-right: 13%; padding-top: 46%; padding-bottom: 33%\">+</p>","response":null,"screen":"fixation","trial_type":"html-keyboard-response","trial_index":124,"time_elapsed":113588,"internal_node_id":"0.0-14.0-0.0-2.0-0.25","screen_height":919,"screen_width":1920,"browser":"firefox","browser_version":"116.0.0","mobile":false,"os":"Windows 10","vsync_rate":143.88,"participant_id":"auz_test","trial_duration":0},{"rt":141,"stimulus":"stimuli/MullerLyer_-18.000_-0.0450.png","response":"arrowdown","screen":"Trial","block":"MullerLyer","correct_response":"arrowdown","trial_type":"image-keyboard-response","trial_index":125,"time_elapsed":113736,"internal_node_id":"0.0-14.0-0.0-2.0-1.25","screen_height":919,"screen_width":1920,"browser":"firefox","browser_version":"116.0.0","mobile":false,"os":"Windows 10","vsync_rate":143.88,"participant_id":"auz_test","prestimulus_duration":1,"correct":true,"type":"MullerLyer","block_number":1,"trial_number":50},{"rt":null,"stimulus":"<p style=\"color: black; font-size: 80px; padding-left: 32%; padding-right: 21%; padding-top: 44%; padding-bottom: 13%\">+</p>","response":null,"screen":"fixation","trial_type":"html-keyboard-response","trial_index":126,"time_elapsed":113737,"internal_node_id":"0.0-14.0-0.0-2.0-0.26","screen_height":919,"screen_width":1920,"browser":"firefox","browser_version":"116.0.0","mobile":false,"os":"Windows 10","vsync_rate":143.88,"participant_id":"auz_test","trial_duration":0},{"rt":5,"stimulus":"stimuli/MullerLyer_-30.000_-0.0450.png","response":"arrowup","screen":"Trial","block":"MullerLyer","correct_response":"arrowdown","trial_type":"image-keyboard-response","trial_index":127,"time_elapsed":113752,"internal_node_id":"0.0-14.0-0.0-2.0-1.26","screen_height":919,"screen_width":1920,"browser":"firefox","browser_version":"116.0.0","mobile":false,"os":"Windows 10","vsync_rate":143.88,"participant_id":"auz_test","prestimulus_duration":1,"correct":false,"type":"MullerLyer","block_number":1,"trial_number":51},{"rt":null,"stimulus":"<p style=\"color: black; font-size: 80px; padding-left: 36%; padding-right: 30%; padding-top: 13%; padding-bottom: 20%\">+</p>","response":null,"screen":"fixation","trial_type":"html-keyboard-response","trial_index":128,"time_elapsed":113754,"internal_node_id":"0.0-14.0-0.0-2.0-0.27","screen_height":919,"screen_width":1920,"browser":"firefox","browser_version":"116.0.0","mobile":false,"os":"Windows 10","vsync_rate":143.88,"participant_id":"auz_test","trial_duration":0},{"rt":110,"stimulus":"stimuli/MullerLyer_6.00000_-0.1337.png","response":"arrowdown","screen":"Trial","block":"MullerLyer","correct_response":"arrowdown","trial_type":"image-keyboard-response","trial_index":129,"time_elapsed":113872,"internal_node_id":"0.0-14.0-0.0-2.0-1.27","screen_height":919,"screen_width":1920,"browser":"firefox","browser_version":"116.0.0","mobile":false,"os":"Windows 10","vsync_rate":143.88,"participant_id":"auz_test","prestimulus_duration":2,"correct":true,"type":"MullerLyer","block_number":1,"trial_number":52},{"rt":null,"stimulus":"<p style=\"color: black; font-size: 80px; padding-left: 28%; padding-right: 47%; padding-top: 6%; padding-bottom: 42%\">+</p>","response":null,"screen":"fixation","trial_type":"html-keyboard-response","trial_index":130,"time_elapsed":113873,"internal_node_id":"0.0-14.0-0.0-2.0-0.28","screen_height":919,"screen_width":1920,"browser":"firefox","browser_version":"116.0.0","mobile":false,"os":"Windows 10","vsync_rate":143.88,"participant_id":"auz_test","trial_duration":0},{"rt":30,"stimulus":"stimuli/MullerLyer_18.0000_-0.24183.png","response":"arrowup","screen":"Trial","block":"MullerLyer","correct_response":"arrowdown","trial_type":"image-keyboard-response","trial_index":131,"time_elapsed":113912,"internal_node_id":"0.0-14.0-0.0-2.0-1.28","screen_height":919,"screen_width":1920,"browser":"firefox","browser_version":"116.0.0","mobile":false,"os":"Windows 10","vsync_rate":143.88,"participant_id":"auz_test","prestimulus_duration":1,"correct":false,"type":"MullerLyer","block_number":1,"trial_number":53},{"rt":null,"stimulus":"<p style=\"color: black; font-size: 80px; padding-left: 28%; padding-right: 26%; padding-top: 17%; padding-bottom: 5%\">+</p>","response":null,"screen":"fixation","trial_type":"html-keyboard-response","trial_index":132,"time_elapsed":113913,"internal_node_id":"0.0-14.0-0.0-2.0-0.29","screen_height":919,"screen_width":1920,"browser":"firefox","browser_version":"116.0.0","mobile":false,"os":"Windows 10","vsync_rate":143.88,"participant_id":"auz_test","trial_duration":0},{"rt":95,"stimulus":"stimuli/MullerLyer_-18.000_0.04500.png","response":"arrowdown","screen":"Trial","block":"MullerLyer","correct_response":"arrowup","trial_type":"image-keyboard-response","trial_index":133,"time_elapsed":114016,"internal_node_id":"0.0-14.0-0.0-2.0-1.29","screen_height":919,"screen_width":1920,"browser":"firefox","browser_version":"116.0.0","mobile":false,"os":"Windows 10","vsync_rate":143.88,"participant_id":"auz_test","prestimulus_duration":1,"correct":false,"type":"MullerLyer","block_number":1,"trial_number":54},{"rt":null,"stimulus":"<p style=\"color: black; font-size: 80px; padding-left: 19%; padding-right: 7%; padding-top: 48%; padding-bottom: 37%\">+</p>","response":null,"screen":"fixation","trial_type":"html-keyboard-response","trial_index":134,"time_elapsed":114017,"internal_node_id":"0.0-14.0-0.0-2.0-0.30","screen_height":919,"screen_width":1920,"browser":"firefox","browser_version":"116.0.0","mobile":false,"os":"Windows 10","vsync_rate":143.88,"participant_id":"auz_test","trial_duration":0},{"rt":53,"stimulus":"stimuli/MullerLyer_6.00000_-0.24183.png","response":"arrowup","screen":"Trial","block":"MullerLyer","correct_response":"arrowdown","trial_type":"image-keyboard-response","trial_index":135,"time_elapsed":114081,"internal_node_id":"0.0-14.0-0.0-2.0-1.30","screen_height":919,"screen_width":1920,"browser":"firefox","browser_version":"116.0.0","mobile":false,"os":"Windows 10","vsync_rate":143.88,"participant_id":"auz_test","prestimulus_duration":1,"correct":false,"type":"MullerLyer","block_number":1,"trial_number":55},{"rt":null,"stimulus":"<p style=\"color: black; font-size: 80px; padding-left: 33%; padding-right: 6%; padding-top: 21%; padding-bottom: 42%\">+</p>","response":null,"screen":"fixation","trial_type":"html-keyboard-response","trial_index":136,"time_elapsed":114082,"internal_node_id":"0.0-14.0-0.0-2.0-0.31","screen_height":919,"screen_width":1920,"browser":"firefox","browser_version":"116.0.0","mobile":false,"os":"Windows 10","vsync_rate":143.88,"participant_id":"auz_test","trial_duration":0},{"rt":69,"stimulus":"stimuli/MullerLyer_-12.000_0.04500.png","response":"arrowdown","screen":"Trial","block":"MullerLyer","correct_response":"arrowup","trial_type":"image-keyboard-response","trial_index":137,"time_elapsed":114160,"internal_node_id":"0.0-14.0-0.0-2.0-1.31","screen_height":919,"screen_width":1920,"browser":"firefox","browser_version":"116.0.0","mobile":false,"os":"Windows 10","vsync_rate":143.88,"participant_id":"auz_test","prestimulus_duration":1,"correct":false,"type":"MullerLyer","block_number":1,"trial_number":56},{"rt":null,"stimulus":"<p style=\"color: black; font-size: 80px; padding-left: 17%; padding-right: 45%; padding-top: 4%; padding-bottom: 22%\">+</p>","response":null,"screen":"fixation","trial_type":"html-keyboard-response","trial_index":138,"time_elapsed":114162,"internal_node_id":"0.0-14.0-0.0-2.0-0.32","screen_height":919,"screen_width":1920,"browser":"firefox","browser_version":"116.0.0","mobile":false,"os":"Windows 10","vsync_rate":143.88,"participant_id":"auz_test","trial_duration":0},{"rt":62,"stimulus":"stimuli/MullerLyer_-30.000_-0.37364.png","response":"arrowup","screen":"Trial","block":"MullerLyer","correct_response":"arrowdown","trial_type":"image-keyboard-response","trial_index":139,"time_elapsed":114232,"internal_node_id":"0.0-14.0-0.0-2.0-1.32","screen_height":919,"screen_width":1920,"browser":"firefox","browser_version":"116.0.0","mobile":false,"os":"Windows 10","vsync_rate":143.88,"participant_id":"auz_test","prestimulus_duration":2,"correct":false,"type":"MullerLyer","block_number":1,"trial_number":57},{"rt":null,"stimulus":"<p style=\"color: black; font-size: 80px; padding-left: 35%; padding-right: 32%; padding-top: 39%; padding-bottom: 43%\">+</p>","response":null,"screen":"fixation","trial_type":"html-keyboard-response","trial_index":140,"time_elapsed":114233,"internal_node_id":"0.0-14.0-0.0-2.0-0.33","screen_height":919,"screen_width":1920,"browser":"firefox","browser_version":"116.0.0","mobile":false,"os":"Windows 10","vsync_rate":143.88,"participant_id":"auz_test","trial_duration":0},{"rt":71,"stimulus":"stimuli/MullerLyer_30.0000_0.04500.png","response":"arrowdown","screen":"Trial","block":"MullerLyer","correct_response":"arrowup","trial_type":"image-keyboard-response","trial_index":141,"time_elapsed":114312,"internal_node_id":"0.0-14.0-0.0-2.0-1.33","screen_height":919,"screen_width":1920,"browser":"firefox","browser_version":"116.0.0","mobile":false,"os":"Windows 10","vsync_rate":143.88,"participant_id":"auz_test","prestimulus_duration":1,"correct":false,"type":"MullerLyer","block_number":1,"trial_number":58},{"rt":null,"stimulus":"<p style=\"color: black; font-size: 80px; padding-left: 10%; padding-right: 17%; padding-top: 24%; padding-bottom: 30%\">+</p>","response":null,"screen":"fixation","trial_type":"html-keyboard-response","trial_index":142,"time_elapsed":114313,"internal_node_id":"0.0-14.0-0.0-2.0-0.34","screen_height":919,"screen_width":1920,"browser":"firefox","browser_version":"116.0.0","mobile":false,"os":"Windows 10","vsync_rate":143.88,"participant_id":"auz_test","trial_duration":0},{"rt":94,"stimulus":"stimuli/MullerLyer_-24.000_-0.1337.png","response":"arrowup","screen":"Trial","block":"MullerLyer","correct_response":"arrowdown","trial_type":"image-keyboard-response","trial_index":143,"time_elapsed":114416,"internal_node_id":"0.0-14.0-0.0-2.0-1.34","screen_height":919,"screen_width":1920,"browser":"firefox","browser_version":"116.0.0","mobile":false,"os":"Windows 10","vsync_rate":143.88,"participant_id":"auz_test","prestimulus_duration":1,"correct":false,"type":"MullerLyer","block_number":1,"trial_number":59},{"rt":null,"stimulus":"<p style=\"color: black; font-size: 80px; padding-left: 46%; padding-right: 26%; padding-top: 16%; padding-bottom: 45%\">+</p>","response":null,"screen":"fixation","trial_type":"html-keyboard-response","trial_index":144,"time_elapsed":114418,"internal_node_id":"0.0-14.0-0.0-2.0-0.35","screen_height":919,"screen_width":1920,"browser":"firefox","browser_version":"116.0.0","mobile":false,"os":"Windows 10","vsync_rate":143.88,"participant_id":"auz_test","trial_duration":0},{"rt":23,"stimulus":"stimuli/MullerLyer_30.0000_0.24183.png","response":"arrowdown","screen":"Trial","block":"MullerLyer","correct_response":"arrowup","trial_type":"image-keyboard-response","trial_index":145,"time_elapsed":114449,"internal_node_id":"0.0-14.0-0.0-2.0-1.35","screen_height":919,"screen_width":1920,"browser":"firefox","browser_version":"116.0.0","mobile":false,"os":"Windows 10","vsync_rate":143.88,"participant_id":"auz_test","prestimulus_duration":2,"correct":false,"type":"MullerLyer","block_number":1,"trial_number":60},{"rt":null,"stimulus":"<p style=\"color: black; font-size: 80px; padding-left: 0%; padding-right: 36%; padding-top: 20%; padding-bottom: 35%\">+</p>","response":null,"screen":"fixation","trial_type":"html-keyboard-response","trial_index":146,"time_elapsed":114449,"internal_node_id":"0.0-14.0-0.0-2.0-0.36","screen_height":919,"screen_width":1920,"browser":"firefox","browser_version":"116.0.0","mobile":false,"os":"Windows 10","vsync_rate":143.88,"participant_id":"auz_test","trial_duration":0},{"rt":126,"stimulus":"stimuli/MullerLyer_-6.0000_-0.0450.png","response":"arrowup","screen":"Trial","block":"MullerLyer","correct_response":"arrowdown","trial_type":"image-keyboard-response","trial_index":147,"time_elapsed":114584,"internal_node_id":"0.0-14.0-0.0-2.0-1.36","screen_height":919,"screen_width":1920,"browser":"firefox","browser_version":"116.0.0","mobile":false,"os":"Windows 10","vsync_rate":143.88,"participant_id":"auz_test","prestimulus_duration":0,"correct":false,"type":"MullerLyer","block_number":1,"trial_number":61},{"rt":null,"stimulus":"<p style=\"color: black; font-size: 80px; padding-left: 12%; padding-right: 49%; padding-top: 39%; padding-bottom: 37%\">+</p>","response":null,"screen":"fixation","trial_type":"html-keyboard-response","trial_index":148,"time_elapsed":114585,"internal_node_id":"0.0-14.0-0.0-2.0-0.37","screen_height":919,"screen_width":1920,"browser":"firefox","browser_version":"116.0.0","mobile":false,"os":"Windows 10","vsync_rate":143.88,"participant_id":"auz_test","trial_duration":0},{"rt":7,"stimulus":"stimuli/MullerLyer_12.0000_0.24183.png","response":"arrowdown","screen":"Trial","block":"MullerLyer","correct_response":"arrowup","trial_type":"image-keyboard-response","trial_index":149,"time_elapsed":114601,"internal_node_id":"0.0-14.0-0.0-2.0-1.37","screen_height":919,"screen_width":1920,"browser":"firefox","browser_version":"116.0.0","mobile":false,"os":"Windows 10","vsync_rate":143.88,"participant_id":"auz_test","prestimulus_duration":1,"correct":false,"type":"MullerLyer","block_number":1,"trial_number":62},{"rt":null,"stimulus":"<p style=\"color: black; font-size: 80px; padding-left: 32%; padding-right: 26%; padding-top: 35%; padding-bottom: 32%\">+</p>","response":null,"screen":"fixation","trial_type":"html-keyboard-response","trial_index":150,"time_elapsed":114602,"internal_node_id":"0.0-14.0-0.0-2.0-0.38","screen_height":919,"screen_width":1920,"browser":"firefox","browser_version":"116.0.0","mobile":false,"os":"Windows 10","vsync_rate":143.88,"participant_id":"auz_test","trial_duration":0},{"rt":135,"stimulus":"stimuli/MullerLyer_-12.000_0.13370.png","response":"arrowdown","screen":"Trial","block":"MullerLyer","correct_response":"arrowup","trial_type":"image-keyboard-response","trial_index":151,"time_elapsed":114744,"internal_node_id":"0.0-14.0-0.0-2.0-1.38","screen_height":919,"screen_width":1920,"browser":"firefox","browser_version":"116.0.0","mobile":false,"os":"Windows 10","vsync_rate":143.88,"participant_id":"auz_test","prestimulus_duration":1,"correct":false,"type":"MullerLyer","block_number":1,"trial_number":63},{"rt":null,"stimulus":"<p style=\"color: black; font-size: 80px; padding-left: 31%; padding-right: 32%; padding-top: 21%; padding-bottom: 31%\">+</p>","response":null,"screen":"fixation","trial_type":"html-keyboard-response","trial_index":152,"time_elapsed":114745,"internal_node_id":"0.0-14.0-0.0-2.0-0.39","screen_height":919,"screen_width":1920,"browser":"firefox","browser_version":"116.0.0","mobile":false,"os":"Windows 10","vsync_rate":143.88,"participant_id":"auz_test","trial_duration":0},{"rt":0,"stimulus":"stimuli/MullerLyer_-30.000_0.24183.png","response":"arrowup","screen":"Trial","block":"MullerLyer","correct_response":"arrowup","trial_type":"image-keyboard-response","trial_index":153,"time_elapsed":114754,"internal_node_id":"0.0-14.0-0.0-2.0-1.39","screen_height":919,"screen_width":1920,"browser":"firefox","browser_version":"116.0.0","mobile":false,"os":"Windows 10","vsync_rate":143.88,"participant_id":"auz_test","prestimulus_duration":1,"correct":true,"type":"MullerLyer","block_number":1,"trial_number":64},{"rt":null,"stimulus":"<p style=\"color: black; font-size: 80px; padding-left: 22%; padding-right: 36%; padding-top: 14%; padding-bottom: 23%\">+</p>","response":null,"screen":"fixation","trial_type":"html-keyboard-response","trial_index":154,"time_elapsed":114755,"internal_node_id":"0.0-14.0-0.0-2.0-0.40","screen_height":919,"screen_width":1920,"browser":"firefox","browser_version":"116.0.0","mobile":false,"os":"Windows 10","vsync_rate":143.88,"participant_id":"auz_test","trial_duration":0},{"rt":142,"stimulus":"stimuli/MullerLyer_-6.0000_-0.37364.png","response":"arrowdown","screen":"Trial","block":"MullerLyer","correct_response":"arrowdown","trial_type":"image-keyboard-response","trial_index":155,"time_elapsed":114904,"internal_node_id":"0.0-14.0-0.0-2.0-1.40","screen_height":919,"screen_width":1920,"browser":"firefox","browser_version":"116.0.0","mobile":false,"os":"Windows 10","vsync_rate":143.88,"participant_id":"auz_test","prestimulus_duration":1,"correct":true,"type":"MullerLyer","block_number":1,"trial_number":65},{"rt":null,"stimulus":"<p style=\"color: black; font-size: 80px; padding-left: 8%; padding-right: 13%; padding-top: 23%; padding-bottom: 48%\">+</p>","response":null,"screen":"fixation","trial_type":"html-keyboard-response","trial_index":156,"time_elapsed":114905,"internal_node_id":"0.0-14.0-0.0-2.0-0.41","screen_height":919,"screen_width":1920,"browser":"firefox","browser_version":"116.0.0","mobile":false,"os":"Windows 10","vsync_rate":143.88,"participant_id":"auz_test","trial_duration":0},{"rt":2,"stimulus":"stimuli/MullerLyer_30.0000_0.13370.png","response":"arrowup","screen":"Trial","block":"MullerLyer","correct_response":"arrowup","trial_type":"image-keyboard-response","trial_index":157,"time_elapsed":114915,"internal_node_id":"0.0-14.0-0.0-2.0-1.41","screen_height":919,"screen_width":1920,"browser":"firefox","browser_version":"116.0.0","mobile":false,"os":"Windows 10","vsync_rate":143.88,"participant_id":"auz_test","prestimulus_duration":1,"correct":true,"type":"MullerLyer","block_number":1,"trial_number":66},{"rt":null,"stimulus":"<p style=\"color: black; font-size: 80px; padding-left: 50%; padding-right: 12%; padding-top: 38%; padding-bottom: 19%\">+</p>","response":null,"screen":"fixation","trial_type":"html-keyboard-response","trial_index":158,"time_elapsed":114916,"internal_node_id":"0.0-14.0-0.0-2.0-0.42","screen_height":919,"screen_width":1920,"browser":"firefox","browser_version":"116.0.0","mobile":false,"os":"Windows 10","vsync_rate":143.88,"participant_id":"auz_test","trial_duration":0},{"rt":116,"stimulus":"stimuli/MullerLyer_6.00000_0.37364.png","response":"arrowdown","screen":"Trial","block":"MullerLyer","correct_response":"arrowup","trial_type":"image-keyboard-response","trial_index":159,"time_elapsed":115040,"internal_node_id":"0.0-14.0-0.0-2.0-1.42","screen_height":919,"screen_width":1920,"browser":"firefox","browser_version":"116.0.0","mobile":false,"os":"Windows 10","vsync_rate":143.88,"participant_id":"auz_test","prestimulus_duration":1,"correct":false,"type":"MullerLyer","block_number":1,"trial_number":67},{"rt":null,"stimulus":"<p style=\"color: black; font-size: 80px; padding-left: 36%; padding-right: 18%; padding-top: 15%; padding-bottom: 29%\">+</p>","response":null,"screen":"fixation","trial_type":"html-keyboard-response","trial_index":160,"time_elapsed":115041,"internal_node_id":"0.0-14.0-0.0-2.0-0.43","screen_height":919,"screen_width":1920,"browser":"firefox","browser_version":"116.0.0","mobile":false,"os":"Windows 10","vsync_rate":143.88,"participant_id":"auz_test","trial_duration":0},{"rt":37,"stimulus":"stimuli/MullerLyer_-24.000_-0.24183.png","response":"arrowup","screen":"Trial","block":"MullerLyer","correct_response":"arrowdown","trial_type":"image-keyboard-response","trial_index":161,"time_elapsed":115088,"internal_node_id":"0.0-14.0-0.0-2.0-1.43","screen_height":919,"screen_width":1920,"browser":"firefox","browser_version":"116.0.0","mobile":false,"os":"Windows 10","vsync_rate":143.88,"participant_id":"auz_test","prestimulus_duration":1,"correct":false,"type":"MullerLyer","block_number":1,"trial_number":68},{"rt":null,"stimulus":"<p style=\"color: black; font-size: 80px; padding-left: 42%; padding-right: 21%; padding-top: 3%; padding-bottom: 34%\">+</p>","response":null,"screen":"fixation","trial_type":"html-keyboard-response","trial_index":162,"time_elapsed":115089,"internal_node_id":"0.0-14.0-0.0-2.0-0.44","screen_height":919,"screen_width":1920,"browser":"firefox","browser_version":"116.0.0","mobile":false,"os":"Windows 10","vsync_rate":143.88,"participant_id":"auz_test","trial_duration":0},{"rt":103,"stimulus":"stimuli/MullerLyer_24.0000_-0.1337.png","response":"arrowdown","screen":"Trial","block":"MullerLyer","correct_response":"arrowdown","trial_type":"image-keyboard-response","trial_index":163,"time_elapsed":115200,"internal_node_id":"0.0-14.0-0.0-2.0-1.44","screen_height":919,"screen_width":1920,"browser":"firefox","browser_version":"116.0.0","mobile":false,"os":"Windows 10","vsync_rate":143.88,"participant_id":"auz_test","prestimulus_duration":1,"correct":true,"type":"MullerLyer","block_number":1,"trial_number":69},{"rt":null,"stimulus":"<p style=\"color: black; font-size: 80px; padding-left: 36%; padding-right: 7%; padding-top: 16%; padding-bottom: 7%\">+</p>","response":null,"screen":"fixation","trial_type":"html-keyboard-response","trial_index":164,"time_elapsed":115201,"internal_node_id":"0.0-14.0-0.0-2.0-0.45","screen_height":919,"screen_width":1920,"browser":"firefox","browser_version":"116.0.0","mobile":false,"os":"Windows 10","vsync_rate":143.88,"participant_id":"auz_test","trial_duration":0},{"rt":62,"stimulus":"stimuli/MullerLyer_6.00000_0.13370.png","response":"arrowup","screen":"Trial","block":"MullerLyer","correct_response":"arrowup","trial_type":"image-keyboard-response","trial_index":165,"time_elapsed":115272,"internal_node_id":"0.0-14.0-0.0-2.0-1.45","screen_height":919,"screen_width":1920,"browser":"firefox","browser_version":"116.0.0","mobile":false,"os":"Windows 10","vsync_rate":143.88,"participant_id":"auz_test","prestimulus_duration":1,"correct":true,"type":"MullerLyer","block_number":1,"trial_number":70},{"rt":null,"stimulus":"<p style=\"color: black; font-size: 80px; padding-left: 34%; padding-right: 12%; padding-top: 31%; padding-bottom: 42%\">+</p>","response":null,"screen":"fixation","trial_type":"html-keyboard-response","trial_index":166,"time_elapsed":115279,"internal_node_id":"0.0-14.0-0.0-2.0-0.46","screen_height":919,"screen_width":1920,"browser":"firefox","browser_version":"116.0.0","mobile":false,"os":"Windows 10","vsync_rate":143.88,"participant_id":"auz_test","trial_duration":0},{"rt":65,"stimulus":"stimuli/MullerLyer_12.0000_-0.1337.png","response":"arrowdown","screen":"Trial","block":"MullerLyer","correct_response":"arrowdown","trial_type":"image-keyboard-response","trial_index":167,"time_elapsed":115352,"internal_node_id":"0.0-14.0-0.0-2.0-1.46","screen_height":919,"screen_width":1920,"browser":"firefox","browser_version":"116.0.0","mobile":false,"os":"Windows 10","vsync_rate":143.88,"participant_id":"auz_test","prestimulus_duration":7,"correct":true,"type":"MullerLyer","block_number":1,"trial_number":71},{"rt":null,"stimulus":"<p style=\"color: black; font-size: 80px; padding-left: 36%; padding-right: 46%; padding-top: 37%; padding-bottom: 11%\">+</p>","response":null,"screen":"fixation","trial_type":"html-keyboard-response","trial_index":168,"time_elapsed":115353,"internal_node_id":"0.0-14.0-0.0-2.0-0.47","screen_height":919,"screen_width":1920,"browser":"firefox","browser_version":"116.0.0","mobile":false,"os":"Windows 10","vsync_rate":143.88,"participant_id":"auz_test","trial_duration":0},{"rt":77,"stimulus":"stimuli/MullerLyer_-24.000_0.04500.png","response":"arrowup","screen":"Trial","block":"MullerLyer","correct_response":"arrowup","trial_type":"image-keyboard-response","trial_index":169,"time_elapsed":115441,"internal_node_id":"0.0-14.0-0.0-2.0-1.47","screen_height":919,"screen_width":1920,"browser":"firefox","browser_version":"116.0.0","mobile":false,"os":"Windows 10","vsync_rate":143.88,"participant_id":"auz_test","prestimulus_duration":1,"correct":true,"type":"MullerLyer","block_number":1,"trial_number":72},{"rt":null,"stimulus":"<p style=\"color: black; font-size: 80px; padding-left: 4%; padding-right: 25%; padding-top: 23%; padding-bottom: 38%\">+</p>","response":null,"screen":"fixation","trial_type":"html-keyboard-response","trial_index":170,"time_elapsed":115441,"internal_node_id":"0.0-14.0-0.0-2.0-0.48","screen_height":919,"screen_width":1920,"browser":"firefox","browser_version":"116.0.0","mobile":false,"os":"Windows 10","vsync_rate":143.88,"participant_id":"auz_test","trial_duration":0},{"rt":54,"stimulus":"stimuli/MullerLyer_-30.000_-0.1337.png","response":"arrowdown","screen":"Trial","block":"MullerLyer","correct_response":"arrowdown","trial_type":"image-keyboard-response","trial_index":171,"time_elapsed":115505,"internal_node_id":"0.0-14.0-0.0-2.0-1.48","screen_height":919,"screen_width":1920,"browser":"firefox","browser_version":"116.0.0","mobile":false,"os":"Windows 10","vsync_rate":143.88,"participant_id":"auz_test","prestimulus_duration":0,"correct":true,"type":"MullerLyer","block_number":1,"trial_number":73},{"rt":null,"stimulus":"<p style=\"color: black; font-size: 80px; padding-left: 5%; padding-right: 7%; padding-top: 36%; padding-bottom: 38%\">+</p>","response":null,"screen":"fixation","trial_type":"html-keyboard-response","trial_index":172,"time_elapsed":115506,"internal_node_id":"0.0-14.0-0.0-2.0-0.49","screen_height":919,"screen_width":1920,"browser":"firefox","browser_version":"116.0.0","mobile":false,"os":"Windows 10","vsync_rate":143.88,"participant_id":"auz_test","trial_duration":0},{"rt":102,"stimulus":"stimuli/MullerLyer_24.0000_0.13370.png","response":"arrowup","screen":"Trial","block":"MullerLyer","correct_response":"arrowup","trial_type":"image-keyboard-response","trial_index":173,"time_elapsed":115616,"internal_node_id":"0.0-14.0-0.0-2.0-1.49","screen_height":919,"screen_width":1920,"browser":"firefox","browser_version":"116.0.0","mobile":false,"os":"Windows 10","vsync_rate":143.88,"participant_id":"auz_test","prestimulus_duration":1,"correct":true,"type":"MullerLyer","block_number":1,"trial_number":74},{"rt":null,"stimulus":"<p style=\"color: black; font-size: 80px; padding-left: 8%; padding-right: 50%; padding-top: 32%; padding-bottom: 36%\">+</p>","response":null,"screen":"fixation","trial_type":"html-keyboard-response","trial_index":174,"time_elapsed":115617,"internal_node_id":"0.0-14.0-0.0-2.0-0.50","screen_height":919,"screen_width":1920,"browser":"firefox","browser_version":"116.0.0","mobile":false,"os":"Windows 10","vsync_rate":143.88,"participant_id":"auz_test","trial_duration":0},{"rt":22,"stimulus":"stimuli/MullerLyer_18.0000_0.13370.png","response":"arrowdown","screen":"Trial","block":"MullerLyer","correct_response":"arrowup","trial_type":"image-keyboard-response","trial_index":175,"time_elapsed":115648,"internal_node_id":"0.0-14.0-0.0-2.0-1.50","screen_height":919,"screen_width":1920,"browser":"firefox","browser_version":"116.0.0","mobile":false,"os":"Windows 10","vsync_rate":143.88,"participant_id":"auz_test","prestimulus_duration":1,"correct":false,"type":"MullerLyer","block_number":1,"trial_number":75},{"rt":null,"stimulus":"<p style=\"color: black; font-size: 80px; padding-left: 10%; padding-right: 42%; padding-top: 49%; padding-bottom: 10%\">+</p>","response":null,"screen":"fixation","trial_type":"html-keyboard-response","trial_index":176,"time_elapsed":115649,"internal_node_id":"0.0-14.0-0.0-2.0-0.51","screen_height":919,"screen_width":1920,"browser":"firefox","browser_version":"116.0.0","mobile":false,"os":"Windows 10","vsync_rate":143.88,"participant_id":"auz_test","trial_duration":0},{"rt":136,"stimulus":"stimuli/MullerLyer_-30.000_0.37364.png","response":"arrowup","screen":"Trial","block":"MullerLyer","correct_response":"arrowup","trial_type":"image-keyboard-response","trial_index":177,"time_elapsed":115792,"internal_node_id":"0.0-14.0-0.0-2.0-1.51","screen_height":919,"screen_width":1920,"browser":"firefox","browser_version":"116.0.0","mobile":false,"os":"Windows 10","vsync_rate":143.88,"participant_id":"auz_test","prestimulus_duration":1,"correct":true,"type":"MullerLyer","block_number":1,"trial_number":76},{"rt":null,"stimulus":"<p style=\"color: black; font-size: 80px; padding-left: 30%; padding-right: 4%; padding-top: 33%; padding-bottom: 33%\">+</p>","response":null,"screen":"fixation","trial_type":"html-keyboard-response","trial_index":178,"time_elapsed":115793,"internal_node_id":"0.0-14.0-0.0-2.0-0.52","screen_height":919,"screen_width":1920,"browser":"firefox","browser_version":"116.0.0","mobile":false,"os":"Windows 10","vsync_rate":143.88,"participant_id":"auz_test","trial_duration":0},{"rt":5,"stimulus":"stimuli/MullerLyer_18.0000_-0.1337.png","response":"arrowdown","screen":"Trial","block":"MullerLyer","correct_response":"arrowdown","trial_type":"image-keyboard-response","trial_index":179,"time_elapsed":115809,"internal_node_id":"0.0-14.0-0.0-2.0-1.52","screen_height":919,"screen_width":1920,"browser":"firefox","browser_version":"116.0.0","mobile":false,"os":"Windows 10","vsync_rate":143.88,"participant_id":"auz_test","prestimulus_duration":1,"correct":true,"type":"MullerLyer","block_number":1,"trial_number":77},{"rt":null,"stimulus":"<p style=\"color: black; font-size: 80px; padding-left: 46%; padding-right: 17%; padding-top: 37%; padding-bottom: 33%\">+</p>","response":null,"screen":"fixation","trial_type":"html-keyboard-response","trial_index":180,"time_elapsed":115810,"internal_node_id":"0.0-14.0-0.0-2.0-0.53","screen_height":919,"screen_width":1920,"browser":"firefox","browser_version":"116.0.0","mobile":false,"os":"Windows 10","vsync_rate":143.88,"participant_id":"auz_test","trial_duration":0},{"rt":126,"stimulus":"stimuli/MullerLyer_12.0000_0.13370.png","response":"arrowdown","screen":"Trial","block":"MullerLyer","correct_response":"arrowup","trial_type":"image-keyboard-response","trial_index":181,"time_elapsed":115944,"internal_node_id":"0.0-14.0-0.0-2.0-1.53","screen_height":919,"screen_width":1920,"browser":"firefox","browser_version":"116.0.0","mobile":false,"os":"Windows 10","vsync_rate":143.88,"participant_id":"auz_test","prestimulus_duration":1,"correct":false,"type":"MullerLyer","block_number":1,"trial_number":78},{"rt":null,"stimulus":"<p style=\"color: black; font-size: 80px; padding-left: 37%; padding-right: 31%; padding-top: 37%; padding-bottom: 48%\">+</p>","response":null,"screen":"fixation","trial_type":"html-keyboard-response","trial_index":182,"time_elapsed":115945,"internal_node_id":"0.0-14.0-0.0-2.0-0.54","screen_height":919,"screen_width":1920,"browser":"firefox","browser_version":"116.0.0","mobile":false,"os":"Windows 10","vsync_rate":143.88,"participant_id":"auz_test","trial_duration":0},{"rt":15,"stimulus":"stimuli/MullerLyer_6.00000_-0.37364.png","response":"arrowup","screen":"Trial","block":"MullerLyer","correct_response":"arrowdown","trial_type":"image-keyboard-response","trial_index":183,"time_elapsed":115968,"internal_node_id":"0.0-14.0-0.0-2.0-1.54","screen_height":919,"screen_width":1920,"browser":"firefox","browser_version":"116.0.0","mobile":false,"os":"Windows 10","vsync_rate":143.88,"participant_id":"auz_test","prestimulus_duration":1,"correct":false,"type":"MullerLyer","block_number":1,"trial_number":79},{"rt":null,"stimulus":"<p style=\"color: black; font-size: 80px; padding-left: 47%; padding-right: 4%; padding-top: 18%; padding-bottom: 8%\">+</p>","response":null,"screen":"fixation","trial_type":"html-keyboard-response","trial_index":184,"time_elapsed":115969,"internal_node_id":"0.0-14.0-0.0-2.0-0.55","screen_height":919,"screen_width":1920,"browser":"firefox","browser_version":"116.0.0","mobile":false,"os":"Windows 10","vsync_rate":143.88,"participant_id":"auz_test","trial_duration":0},{"rt":95,"stimulus":"stimuli/MullerLyer_18.0000_0.37364.png","response":"arrowdown","screen":"Trial","block":"MullerLyer","correct_response":"arrowup","trial_type":"image-keyboard-response","trial_index":185,"time_elapsed":116072,"internal_node_id":"0.0-14.0-0.0-2.0-1.55","screen_height":919,"screen_width":1920,"browser":"firefox","browser_version":"116.0.0","mobile":false,"os":"Windows 10","vsync_rate":143.88,"participant_id":"auz_test","prestimulus_duration":1,"correct":false,"type":"MullerLyer","block_number":1,"trial_number":80},{"rt":null,"stimulus":"<p style=\"color: black; font-size: 80px; padding-left: 39%; padding-right: 25%; padding-top: 24%; padding-bottom: 11%\">+</p>","response":null,"screen":"fixation","trial_type":"html-keyboard-response","trial_index":186,"time_elapsed":116073,"internal_node_id":"0.0-14.0-0.0-2.0-0.56","screen_height":919,"screen_width":1920,"browser":"firefox","browser_version":"116.0.0","mobile":false,"os":"Windows 10","vsync_rate":143.88,"participant_id":"auz_test","trial_duration":0},{"rt":54,"stimulus":"stimuli/MullerLyer_24.0000_-0.37364.png","response":"arrowup","screen":"Trial","block":"MullerLyer","correct_response":"arrowdown","trial_type":"image-keyboard-response","trial_index":187,"time_elapsed":116136,"internal_node_id":"0.0-14.0-0.0-2.0-1.56","screen_height":919,"screen_width":1920,"browser":"firefox","browser_version":"116.0.0","mobile":false,"os":"Windows 10","vsync_rate":143.88,"participant_id":"auz_test","prestimulus_duration":1,"correct":false,"type":"MullerLyer","block_number":1,"trial_number":81},{"rt":null,"stimulus":"<p style=\"color: black; font-size: 80px; padding-left: 45%; padding-right: 5%; padding-top: 34%; padding-bottom: 44%\">+</p>","response":null,"screen":"fixation","trial_type":"html-keyboard-response","trial_index":188,"time_elapsed":116137,"internal_node_id":"0.0-14.0-0.0-2.0-0.57","screen_height":919,"screen_width":1920,"browser":"firefox","browser_version":"116.0.0","mobile":false,"os":"Windows 10","vsync_rate":143.88,"participant_id":"auz_test","trial_duration":0},{"rt":79,"stimulus":"stimuli/MullerLyer_30.0000_-0.1337.png","response":"arrowdown","screen":"Trial","block":"MullerLyer","correct_response":"arrowdown","trial_type":"image-keyboard